timestamp, angular_velocity_x, angular_velocity_y, angular_velocity_z, linear_acceleration_x, linear_acceleration_y, linear_acceleration_z
1520530962735370731, -0.185356011869515, 0.018375811521546746, 0.010918960469324878, -1.088536376953125, -0.264649658203125, 10.25307861328125
1520530962740386731, -0.1874865407415784, 0.0290284558818637, 0.02689792700980031, -1.101708984375, -0.26105712890625, 10.285411376953126
1520530962745401731, -0.1901497018316576, 0.042077945223251964, 0.04447479020432328, -1.1256591796875, -0.276624755859375, 10.25307861328125
1520530962750418731, -0.18961706961364178, 0.0636495500528938, 0.06045375674479871, -1.1064990234375, -0.295784912109375, 9.998009033203125
1520530962755433731, -0.1829591668884437, 0.08948221262666241, 0.07936220048436131, -1.1831396484375, -0.250279541015625, 9.969268798828125
1520530962760449731, -0.1765675802722535, 0.10199906975003482, 0.09480853480682089, -1.3316308593750001, -0.35685791015625, 10.11895751953125
1520530962765464731, -0.1709749419830871, 0.10519486305812992, 0.10626012749416161, -1.440604248046875, -0.45385620117187503, 10.3129541015625
1520530962770479731, -0.16777914867499202, 0.10146643753201898, 0.11584750741844686, -1.414259033203125, -0.5185217285156251, 10.402767333984375
1520530962775497731, -0.16378440703987315, 0.0950748509158288, 0.12383699068868459, -1.299298095703125, -0.5484594726562501, 10.50695068359375
1520530962780512731, -0.16058861373177807, 0.08522115488253562, 0.132891738394954, -1.229842529296875, -0.51492919921875, 10.65065185546875
1520530962785528731, -0.1563275559876513, 0.06791060779702057, 0.14221280221023133, -1.189127197265625, -0.41433837890625, 10.666219482421875
1520530962790543731, -0.1464738599543581, 0.05672533121868778, 0.1531317626795562, -1.2070898437500002, -0.367635498046875, 10.699749755859376
1520530962795559731, -0.13795174446610456, 0.04713795129440252, 0.16032229762277014, -1.234632568359375, -0.3879931640625, 10.668614501953126
1520530962800575731, -0.12676646788777174, 0.0391484680241648, 0.16325177482185732, -1.227447509765625, -0.40475830078125, 10.62670166015625
1520530962805590731, -0.11584750741844686, 0.03542004249805387, 0.16618125202094447, -1.2202624511718752, -0.48379394531250003, 10.568023681640625
1520530962810606731, -0.1059938113851537, 0.03382214584400633, 0.16911072922003165, -1.2214599609375, -0.496966552734375, 10.59556640625
1520530962815621731, -0.09214537371674165, 0.033555829734998405, 0.16911072922003165, -1.234632568359375, -0.5053491210937501, 10.601553955078126
1520530962820638731, -0.08229167768344847, 0.02476739813773692, 0.16671388423896033, -1.20469482421875, -0.532891845703125, 10.6290966796875
1520530962825654731, -0.07004113666908397, 0.013582121559404116, 0.1653823036939207, -1.184337158203125, -0.566422119140625, 10.660231933593751
1520530962830669731, -0.06045375674479871, 0.004261057744126781, 0.16458335536689694, -1.18074462890625, -0.611927490234375, 10.66502197265625
1520530962835685731, -0.04953479627547384, -0.006657902725198096, 0.16458335536689694, -1.249002685546875, -0.6466552734375001, 10.639874267578126
1520530962840701731, -0.03808320358813311, -0.01651159875849128, 0.1619201942768177, -1.3867163085937502, -0.705333251953125, 10.649454345703125
1520530962845715731, -0.026098978682776535, -0.024501082028728992, 0.15366439489757205, -1.4597644042968752, -0.81670166015625, 10.663824462890625
1520530962850732731, -0.017576863194522972, -0.031691616971942935, 0.14674017606336603, -1.4226416015625, -0.844244384765625, 10.750045166015626
1520530962855748731, -0.009321063815277334, -0.03994741635118858, 0.1352885833760253, -1.419049072265625, -0.8286767578125, 10.764415283203126
1520530962860763731, 0.0023968449810713144, -0.04633900296737875, 0.12250541014364497, -1.332828369140625, -0.7616162109375001, 10.764415283203126
1520530962865778731, 0.011185276578332801, -0.05299690569257685, 0.11424961076439932, -1.320853271484375, -0.6945556640625, 10.649454345703125
1520530962870794731, 0.023702133701705222, -0.05459480234662439, 0.10679275971217746, -1.3232482910156251, -0.6167175292968751, 10.6099365234375
1520530962875810731, 0.0391484680241648, -0.053529537910592694, 0.09960222476896352, -1.292113037109375, -0.5736071777343751, 10.556048583984376
1520530962880826731, 0.056192699000671927, -0.05246427347456099, 0.08788431597261487, -1.29570556640625, -0.566422119140625, 10.469827880859375
1520530962885842731, 0.07403587830420283, -0.050067428493489684, 0.080427464920393, -1.351988525390625, -0.54366943359375, 10.362052001953126
1520530962890857731, 0.09187905760773372, -0.04607268685837083, 0.07323692997717905, -1.304088134765625, -0.52929931640625, 10.3704345703125
1520530962895872731, 0.10705907582118539, -0.04447479020432328, 0.06844324001503643, -1.30049560546875, -0.59635986328125, 10.390792236328126
1520530962900889731, 0.12250541014364497, -0.04074636467821235, 0.06444849837991756, -1.308878173828125, -0.6466552734375001, 10.397977294921876
1520530962905904731, 0.13608753170304907, -0.036218990825077645, 0.06098638896281456, -1.3232482910156251, -0.69216064453125, 10.374027099609375
1520530962910920731, 0.1475391243903898, -0.03542004249805387, 0.058855860090751166, -1.39869140625, -0.7616162109375001, 10.386002197265626
1520530962915935731, 0.15446334322459582, -0.03328951362599048, 0.053529537910592694, -1.47772705078125, -0.839454345703125, 10.38719970703125
1520530962920952731, 0.15925703318673845, -0.032756881407974635, 0.04846953183944214, -1.44419677734375, -0.8837622070312501, 10.484197998046875
1520530962925968731, 0.16351809093086522, -0.039681100242180654, 0.04447479020432328, -1.311273193359375, -0.858614501953125, 10.638676757812501
1520530962930983731, 0.1653823036939207, -0.05858954398174324, 0.040480048569204424, -1.18074462890625, -0.7831713867187501, 10.673404541015625
1520530962935998731, 0.16591493591193654, -0.08468852266451977, 0.04447479020432328, -1.06099365234375, -0.7424560546875001, 10.751242675781251
1520530962941015731, 0.16671388423896033, -0.11345066243737556, 0.047404267403410444, -1.0190808105468752, -0.662222900390625, 10.766810302734376
1520530962946030731, 0.16777914867499202, -0.13768542835709663, 0.05113269292952138, -1.043031005859375, -0.58198974609375, 10.71052734375
1520530962951046731, 0.16671388423896033, -0.15579492376963544, 0.05273058958356892, -1.043031005859375, -0.51492919921875, 10.691367187500001
1520530962956062731, 0.1685780970020158, -0.16591493591193654, 0.05432848623761646, -1.0298583984375, -0.4742138671875, 10.607541503906251
1520530962961078731, 0.17417073529118218, -0.16724651645697616, 0.05672533121868778, -1.0777587890625, -0.42032592773437505, 10.490185546875
1520530962966091731, 0.17523599972721388, -0.16245282649483353, 0.055926382891664, -1.1005114746093752, -0.3784130859375, 10.3848046875
1520530962971109731, 0.1776328447082852, -0.14780544049939773, 0.05486111845563231, -1.157991943359375, -0.384400634765625, 10.330916748046876
1520530962976124731, 0.1829591668884437, -0.13262542228594607, 0.04980111238448176, -1.1771520996093752, -0.4071533203125, 10.20996826171875
1520530962981140731, 0.1845570635424912, -0.1150485590914231, 0.045540054640354974, -1.25259521484375, -0.47181884765625004, 10.187215576171875
1520530962986156731, 0.18242653467042783, -0.09321063815277335, 0.04074636467821235, -1.37953125, -0.568817138671875, 10.212363281250001
1520530962991172731, 0.17630126416324557, -0.0681769239060285, 0.025033714246744842, -1.510059814453125, -0.718505859375, 10.227930908203126
1520530962996186731, 0.16564861980292864, -0.04607268685837083, 0.006657902725198096, -1.561552734375, -0.901724853515625, 10.38240966796875
1520530963001203731, 0.14966965326245318, -0.03488741028003802, -0.012783173232380344, -1.522034912109375, -0.9376501464843751, 10.596763916015625
1520530963006219731, 0.13235910617693813, -0.034354778062022175, -0.026098978682776535, -1.4897021484375002, -0.846639404296875, 10.675799560546876
1520530963011234731, 0.1139832946553914, -0.04101268078722027, -0.030892668644919165, -1.3915063476562501, -0.7424560546875001, 10.74884765625
1520530963016249731, 0.09614011535186051, -0.04980111238448176, -0.030360036426903318, -1.3531860351562501, -0.645457763671875, 10.77519287109375
1520530963021266731, 0.08175904546543261, -0.05912217619975909, -0.028762139772855775, -1.31965576171875, -0.542471923828125, 10.772797851562501
1520530963026281731, 0.06950850445106813, -0.06791060779702057, -0.026631610900792385, -1.260977783203125, -0.47900390625, 10.70813232421875
1520530963031296731, 0.0569916473276957, -0.07030745277809189, -0.021038972611625982, -1.2370275878906252, -0.4358935546875, 10.645861816406251
1520530963036313731, 0.04980111238448176, -0.07350324608618698, -0.010120012142301106, -1.2070898437500002, -0.39278320312500004, 10.579998779296876
1520530963041329731, 0.04101268078722027, -0.07643272328527415, 0.0021305288720633907, -1.1867321777343751, -0.374820556640625, 10.515333251953125
1520530963046343731, 0.03542004249805387, -0.080427464920393, 0.011451592687340724, -1.21427490234375, -0.36404296875000003, 10.451865234375001
1520530963051360731, 0.03328951362599048, -0.08522115488253562, 0.026098978682776535, -1.2214599609375, -0.434696044921875, 10.406359863281251
1520530963056375731, 0.029561088099879545, -0.09134642538971788, 0.0391484680241648, -1.287322998046875, -0.46104125976562504, 10.432705078125
1520530963061392731, 0.02849582366384785, -0.09747169589690012, 0.05033374460249761, -1.347198486328125, -0.51971923828125, 10.383607177734376
1520530963066406731, 0.030360036426903318, -0.10253170196805068, 0.05752427954571155, -1.466949462890625, -0.5951623535156251, 10.328521728515625
1520530963071422731, 0.032756881407974635, -0.10572749527614576, 0.06125270507182248, -1.62861328125, -0.705333251953125, 10.413544921875001
1520530963076438731, 0.030360036426903318, -0.1139832946553914, 0.06444849837991756, -1.6058605957031251, -0.8622070312500001, 10.496173095703126
1520530963081454731, 0.030892668644919165, -0.1241033067976925, 0.06418218227090965, -1.5495776367187502, -0.923280029296875, 10.56922119140625
1520530963086470731, 0.03328951362599048, -0.13901700890213625, 0.06178533728983833, -1.45377685546875, -0.87897216796875, 10.568023681640625
1520530963091485731, 0.03755057137011726, -0.16165387816780977, 0.06205165339884625, -1.3316308593750001, -0.6981481933593751, 10.541678466796876
1520530963096500731, 0.0468716351853946, -0.1864212763055467, 0.06418218227090965, -1.148411865234375, -0.5352868652343751, 10.438692626953125
1520530963101517731, 0.06098638896281456, -0.2055960361541172, 0.06791060779702057, -1.050216064453125, -0.389190673828125, 10.32492919921875
1520530963106532731, 0.07723167161229791, -0.21731394495046585, 0.07510114274023452, -0.8729846191406251, -0.188009033203125, 10.213560791015626
1520530963111549731, 0.09693906367888427, -0.22397184767566394, 0.08788431597261487, -0.803529052734375, -0.03592529296875, 10.108179931640626
1520530963116564731, 0.12037488127158158, -0.22423816378467187, 0.09800432811491597, -0.689765625, 0.067060546875, 10.03752685546875
1520530963121580731, 0.14460964719130265, -0.2199771060405451, 0.11132013356531216, -0.5544470214843751, 0.1484912109375, 10.033934326171876
1520530963126595731, 0.16884441311102372, -0.2135855194243549, 0.12942962897785099, -0.506546630859375, 0.178428955078125, 9.97046630859375
1520530963131612731, 0.19787286899288742, -0.20346550728205381, 0.14567491162733434, -0.458646240234375, 0.18441650390625, 9.875863037109376
1520530963136627731, 0.2234392154576481, -0.1920139145947131, 0.16484967147590485, -0.42272094726562504, 0.17004638671875, 9.8339501953125
1520530963141642731, 0.248206613595385, -0.17869810914431689, 0.18402443132447538, -0.4742138671875, 0.10298583984375001, 9.853110351562501
1520530963146657731, 0.2679140056619714, -0.16458335536689694, 0.19840550121090325, -0.494571533203125, 0.049097900390625004, 9.89861572265625
1520530963151674731, 0.28309402387542304, -0.15020228548046904, 0.20879182946221228, -0.506546630859375, -0.041912841796875, 9.995614013671876
1520530963156690731, 0.2966761454348272, -0.14141385388320757, 0.2165149966234421, -0.57719970703125, -0.16166381835937502, 10.117760009765625
1520530963161706731, 0.304132996487049, -0.13795174446610456, 0.2165149966234421, -0.63947021484375, -0.324525146484375, 10.3033740234375
1520530963166720731, 0.30786142201315997, -0.14327806664626302, 0.2135855194243549, -0.6741979980468751, -0.458646240234375, 10.460247802734376
1520530963171737731, 0.30839405423117583, -0.15259913046154036, 0.20612866837213306, -0.7232958984375001, -0.44307861328125003, 10.55724609375
1520530963176753731, 0.307595105904152, -0.15765913653269092, 0.19840550121090325, -0.7855664062500001, -0.379610595703125, 10.6099365234375
1520530963181767731, 0.3073287897951441, -0.15606123987864337, 0.19734023677487156, -0.7340734863281251, -0.21794677734375, 10.5907763671875
1520530963186784731, 0.3097256347762154, -0.15233281435253243, 0.2055960361541172, -0.686173095703125, -0.011975097656250001, 10.508148193359375
1520530963191799731, 0.314785640847366, -0.14114753777419964, 0.21678131273245, -0.707728271484375, 0.149688720703125, 10.407557373046876
1520530963196814731, 0.32357407244462744, -0.12703278399677967, 0.23062975040086203, -0.690963134765625, 0.243094482421875, 10.36324951171875
1520530963201831731, 0.3307646073878414, -0.11291803021935971, 0.2468750330503454, -0.63228515625, 0.32332763671875003, 10.306966552734375
1520530963206847731, 0.3371561940040316, -0.10173275364102691, 0.26658242511693175, -0.5891748046875, 0.33769775390625, 10.328521728515625
1520530963211862731, 0.3350256651319682, -0.09241168982574957, 0.2857571849655023, -0.5508544921875, 0.338895263671875, 10.352471923828125
1520530963216878731, 0.33369408458692856, -0.08628641931856733, 0.30466562870506486, -0.5484594726562501, 0.28500732421875, 10.40156982421875
1520530963221894731, 0.3291667107337939, -0.08309062601047223, 0.3195793308095086, -0.477806396484375, 0.239501953125, 10.511740722656251
1520530963226909731, 0.32117722746355615, -0.08202536157444054, 0.3344930329139523, -0.47301635742187503, 0.17244140625, 10.647059326171876
1520530963231925731, 0.30812773812216787, -0.08362325822848808, 0.3459446256012931, -0.449066162109375, 0.06945556640625, 10.714119873046876
1520530963236940731, 0.28682244940153395, -0.08655273542757524, 0.35340147665351496, -0.5077441406250001, -0.009580078125, 10.806328125
1520530963241957731, 0.26418558013586046, -0.08948221262666241, 0.35686358607061797, -0.62989013671875, -0.089813232421875, 10.853031005859375
1520530963246971731, 0.23968449810713147, -0.0905474770626941, 0.35553200552557834, -0.65863037109375, -0.1484912109375, 10.885363769531251
1520530963251988731, 0.21092235833427567, -0.08788431597261487, 0.3494067350183961, -0.77838134765625, -0.24189697265625001, 10.953621826171876
1520530963257004731, 0.18162758634340406, -0.08202536157444054, 0.3416835678571663, -0.87897216796875, -0.29219238281250004, 10.991942138671876
1520530963262019731, 0.1472728082813819, -0.07483482663122659, 0.3262372335347067, -0.97477294921875, -0.398770751953125, 11.003917236328126
1520530963267035731, 0.11318434632836763, -0.06977482056007604, 0.31025826699423126, -1.09931396484375, -0.45984375, 11.025472412109375
1520530963272052731, 0.07696535550328999, -0.06125270507182248, 0.2892192943826053, -1.1436218261718751, -0.549656982421875, 11.063792724609376
1520530963277067731, 0.03675162304309349, -0.056192699000671927, 0.26418558013586046, -1.169967041015625, -0.6382727050781251, 11.00032470703125
1520530963282082731, -0.004793689962142629, -0.04767058351241837, 0.23409185981796504, -1.2633728027343751, -0.6825805664062501, 11.045830078125
1520530963287098731, -0.04500742242233913, -0.03408846195301425, 0.20639498448114096, -1.2669653320312502, -0.74006103515625, 11.026669921875001
1520530963292114731, -0.08442220655551186, -0.017843179303530896, 0.17523599972721388, -1.274150390625, -0.7999365234375, 10.972781982421875
1520530963297128731, -0.12223909403463704, -0.005060006071150553, 0.14247911831923926, -1.311273193359375, -0.85023193359375, 10.941646728515625
1520530963302145731, -0.16245282649483353, 0.010120012142301106, 0.11132013356531216, -1.2933105468750001, -0.880169677734375, 10.872191162109376
1520530963307160731, -0.19867181731991118, 0.020240024284602212, 0.07936220048436131, -1.2801379394531252, -0.8957373046875, 10.878178710937501
1520530963312177731, -0.23036343429185413, 0.02556634646476069, 0.05060006071150553, -1.22385498046875, -0.8957373046875, 10.847043457031251
1520530963317191731, -0.2580603096286782, 0.02769687533682408, 0.024501082028728992, -1.1771520996093752, -0.858614501953125, 10.809920654296876
1520530963322208731, -0.2804308627853438, 0.027963191445832, 0.0007989483270237715, -1.1352392578125001, -0.8406518554687501, 10.751242675781251
1520530963327224731, -0.2982740420888747, 0.028762139772855775, -0.01997370817559429, -1.0753637695312501, -0.7915539550781251, 10.644664306640626
1520530963332239731, -0.31425300862935013, 0.02822950755483993, -0.03728425526110934, -1.0190808105468752, -0.738863525390625, 10.558443603515625
1520530963337255731, -0.32250880800859577, 0.03328951362599048, -0.05273058958356892, -0.928070068359375, -0.667012939453125, 10.462642822265625
1520530963342271731, -0.3238403885536354, 0.03755057137011726, -0.06791060779702057, -0.8514294433593751, -0.602347412109375, 10.391989746093751
1520530963347286731, -0.32224249189958787, 0.042077945223251964, -0.08096009713840885, -0.7771838378906251, -0.5376818847656251, 10.263856201171876
1520530963352303731, -0.31238879586629464, 0.051665325147537224, -0.09001484484467825, -0.681383056640625, -0.48139892578125004, 10.151290283203126
1520530963357318731, -0.29880667430689056, 0.05965480841777494, -0.09667274756987636, -0.613125, -0.446671142578125, 10.0830322265625
1520530963362333731, -0.2814961272213755, 0.06604639503396512, -0.10333065029507445, -0.59156982421875, -0.38320312500000003, 10.036329345703125
1520530963367349731, -0.26418558013586046, 0.07323692997717905, -0.10892328858424084, -0.619112548828125, -0.3305126953125, 10.015971679687501
1520530963372365731, -0.24314660752423448, 0.08548747099154355, -0.11105381745630424, -0.61072998046875, -0.346080322265625, 10.0255517578125
1520530963377381731, -0.22157500269459263, 0.09986854087797144, -0.11424961076439932, -0.6574328613281251, -0.38559814453125, 9.97046630859375
1520530963382396731, -0.19627497233883986, 0.11691277185447857, -0.11531487520043102, -0.707728271484375, -0.39158569335937504, 9.964478759765626
1520530963387412731, -0.17257283863713466, 0.132891738394954, -0.11744540407249442, -0.7125183105468751, -0.439486083984375, 9.98483642578125
1520530963392428731, -0.1464738599543581, 0.14221280221023133, -0.11638013963646272, -0.756826171875, -0.494571533203125, 10.0351318359375
1520530963397442731, -0.12197277792562912, 0.14940333715344528, -0.11584750741844686, -0.70892578125, -0.49097900390625004, 10.002799072265626
1520530963402459731, -0.0926780059347575, 0.14966965326245318, -0.11265171411035178, -0.667012939453125, -0.44786865234375, 9.992021484375
1520530963407474731, -0.06444849837991756, 0.14327806664626302, -0.10652644360316954, -0.743653564453125, -0.43110351562500004, 9.928553466796876
1520530963412490731, -0.03675162304309349, 0.13502226726701738, -0.09667274756987636, -0.7711962890625, -0.41314086914062503, 9.9776513671875
1520530963417506731, -0.00346210941710301, 0.12703278399677967, -0.08974852873567034, -0.8047265625000001, -0.3879931640625, 9.99920654296875
1520530963422521731, 0.025033714246744842, 0.11717908796348649, -0.08069378102940092, -0.839454345703125, -0.360450439453125, 9.962083740234375
1520530963427537731, 0.05832322787273532, 0.10492854694912199, -0.07084008499610774, -0.8622070312500001, -0.338895263671875, 9.9584912109375
1520530963432553731, 0.08921589651765449, 0.09560748313384466, -0.05938849230876701, -0.97477294921875, -0.31853759765625, 9.95130615234375
1520530963437569731, 0.12223909403463704, 0.08921589651765449, -0.05406217012860854, -1.0394384765625, -0.316142578125, 9.990823974609375
1520530963442585731, 0.15366439489757205, 0.07856325215733753, -0.05193164125654515, -1.0346484375, -0.33290771484375004, 10.0830322265625
1520530963447599731, 0.1829591668884437, 0.06950850445106813, -0.053529537910592694, -1.149609375, -0.34727783203125, 10.230325927734375
1520530963452616731, 0.2111886744432836, 0.05779059565471947, -0.056192699000671927, -1.189127197265625, -0.3592529296875, 10.34408935546875
1520530963457631731, 0.23249396316391752, 0.047404267403410444, -0.061519021180830406, -1.1951147460937501, -0.3784130859375, 10.441087646484375
1520530963462646731, 0.2559297807566148, 0.037816887479125184, -0.06657902725198096, -1.155596923828125, -0.37242553710937504, 10.395582275390625
1520530963467663731, 0.2764361211502249, 0.028762139772855775, -0.06764429168801266, -1.232237548828125, -0.33171020507812504, 10.32732421875
1520530963472679731, 0.29001824270962906, 0.020240024284602212, -0.0692421883420602, -1.3783337402343752, -0.384400634765625, 10.304571533203125
1520530963477695731, 0.30812773812216787, 0.012783173232380344, -0.07669903939428206, -1.347198486328125, -0.39398071289062503, 10.317744140625
1520530963482711731, 0.32304144022661163, 0.00825579937924564, -0.080427464920393, -1.308878173828125, -0.434696044921875, 10.285411376953126
1520530963487726731, 0.3312972396058573, 0.003728425526110934, -0.08175904546543261, -1.302890625, -0.42870849609375, 10.2746337890625
1520530963492742731, 0.3395530389851029, 0.003728425526110934, -0.08575378710055148, -1.23822509765625, -0.36404296875000003, 10.25786865234375
1520530963497756731, 0.34674357392831684, 0.0021305288720633907, -0.08681905153658317, -1.136436767578125, -0.28500732421875, 10.227930908203126
1520530963502773731, 0.3515372638904595, 0.0055926382891664005, -0.08309062601047223, -1.1160791015625, -0.19040405273437502, 10.223140869140625
1520530963507788731, 0.3542004249805387, 0.00825579937924564, -0.07803061993932169, -1.009500732421875, -0.1580712890625, 10.165660400390626
1520530963512803731, 0.35393410887153076, 0.009054747706269411, -0.0727042977591632, -0.920885009765625, -0.142503662109375, 10.251881103515625
1520530963517821731, 0.3518035799994674, 0.006391586616190172, -0.06631271114297303, -0.93645263671875, -0.11256591796875001, 10.316546630859376
1520530963522835731, 0.349673051127404, 0.0023968449810713144, -0.05832322787273532, -0.9160949707031251, -0.037122802734375, 10.364447021484375
1520530963527851731, 0.3438140967292297, -0.0010652644360316954, -0.04953479627547384, -0.861009521484375, -0.008382568359375, 10.4087548828125
1520530963532868731, 0.33582461345899195, -0.00825579937924564, -0.03808320358813311, -0.83586181640625, -0.020357666015625, 10.5141357421875
1520530963537882731, 0.325171969098675, -0.01864212763055467, -0.025300030355752765, -0.7939489746093751, 0.008382568359375, 10.589578857421875
1520530963542898731, 0.3131877441933184, -0.032756881407974635, -0.010918960469324878, -0.8562194824218751, 0.026345214843750003, 10.668614501953126
1520530963547914731, 0.2961435132168113, -0.04340952576829159, -0.0005326322180158477, -0.89334228515625, 0.05987548828125, 10.698552246093751
1520530963552930731, 0.27883296613129627, -0.05246427347456099, 0.010652644360316953, -0.9532177734375, 0.089813232421875, 10.7248974609375
1520530963557946731, 0.2633866318088367, -0.06125270507182248, 0.018109495412538822, -0.999920654296875, 0.094603271484375, 10.77519287109375
1520530963562961731, 0.24394555585125824, -0.06950850445106813, 0.025033714246744842, -0.9843530273437501, 0.08861572265625, 10.865006103515626
1520530963567977731, 0.22237395102161642, -0.07989483270237716, 0.030360036426903318, -0.9927355957031251, 0.087418212890625, 10.82309326171875
1520530963572993731, 0.19840550121090325, -0.08735168375459902, 0.03595267471606972, -0.93884765625, 0.10777587890625001, 10.809920654296876
1520530963578008731, 0.18056232190737237, -0.09454221869781296, 0.041278996896228194, -0.871787109375, 0.162861328125, 10.7823779296875
1520530963583024731, 0.16058861373177807, -0.0982706442239239, 0.04873584794845006, -0.81670166015625, 0.228724365234375, 10.735675048828126
1520530963588040731, 0.14247911831923926, -0.09906959255094767, 0.0580569117637274, -0.74006103515625, 0.28740234375, 10.718909912109375
1520530963593056731, 0.12596751956074798, -0.09587379924285258, 0.07084008499610774, -0.6562353515625, 0.336500244140625, 10.6578369140625
1520530963598071731, 0.10652644360316954, -0.09108010928070995, 0.08388957433749601, -0.659827880859375, 0.37242553710937504, 10.654244384765626
1520530963603087731, 0.09294432204376542, -0.08442220655551186, 0.09906959255094767, -0.6274951171875001, 0.360450439453125, 10.630294189453126
1520530963608103731, 0.07723167161229791, -0.07856325215733753, 0.1105211852382884, -0.683778076171875, 0.36164794921875004, 10.62670166015625
1520530963613117731, 0.062317969507854176, -0.07403587830420283, 0.1251685712337242, -0.681383056640625, 0.31374755859375003, 10.623109130859376
1520530963618135731, 0.04926848016646591, -0.06471481448892549, 0.13768542835709663, -0.662222900390625, 0.243094482421875, 10.645861816406251
1520530963623150731, 0.036218990825077645, -0.05672533121868778, 0.1475391243903898, -0.70892578125, 0.17244140625, 10.67220703125
1520530963628166731, 0.020240024284602212, -0.05273058958356892, 0.15712650431467506, -0.8214916992187501, 0.047900390625000004, 10.637479248046876
1520530963633181731, 0.006657902725198096, -0.04953479627547384, 0.15765913653269092, -0.9915380859375, -0.07065307617187501, 10.6578369140625
1520530963638197731, -0.005326322180158476, -0.04607268685837083, 0.1510012338074928, -1.0921289062500001, -0.21315673828125, 10.615924072265626
1520530963643212731, -0.017044230976507126, -0.0391484680241648, 0.13768542835709663, -1.24301513671875, -0.38080810546875005, 10.61233154296875
1520530963648227731, -0.02822950755483993, -0.02689792700980031, 0.1206411973805895, -1.359173583984375, -0.446671142578125, 10.599158935546875
1520530963653244731, -0.03834951969714103, -0.017044230976507126, 0.09906959255094767, -1.3699511718750002, -0.50055908203125, 10.596763916015625
1520530963658260731, -0.0458063707493629, -0.007456851052221868, 0.07643272328527415, -1.342408447265625, -0.523311767578125, 10.591973876953126
1520530963663275731, -0.05512743456464023, 0.0007989483270237715, 0.0569916473276957, -1.3076806640625, -0.51492919921875, 10.568023681640625
1520530963668292731, -0.06205165339884625, 0.004527373853134706, 0.040480048569204424, -1.162781982421875, -0.458646240234375, 10.518925781250001
1520530963673307731, -0.06657902725198096, 0.003728425526110934, 0.027430559227816155, -1.0370434570312501, -0.39517822265625, 10.499765625
1520530963678323731, -0.06844324001503643, -0.0007989483270237715, 0.018908443739562592, -0.9304650878906251, -0.277822265625, 10.505753173828126
1520530963683338731, -0.06977482056007604, -0.010652644360316953, 0.017044230976507126, -0.8178991699218751, -0.162861328125, 10.472222900390625
1520530963688354731, -0.0692421883420602, -0.021571604829641832, 0.016245282649483356, -0.8155041503906251, -0.106578369140625, 10.474617919921876
1520530963693369731, -0.06897587223305228, -0.031691616971942935, 0.017576863194522972, -0.784368896484375, -0.09819580078125001, 10.471025390625
1520530963698385731, -0.06524744670694134, -0.03595267471606972, 0.01597896654047543, -0.7723937988281251, -0.06346801757812501, 10.49737060546875
1520530963703401731, -0.05965480841777494, -0.03222424918995878, 0.017843179303530896, -0.7879614257812501, -0.0718505859375, 10.467432861328126
1520530963708417731, -0.0569916473276957, -0.023968449810713145, 0.016777914867499202, -0.7855664062500001, -0.12334350585937501, 10.42552001953125
1520530963713431731, -0.050067428493489684, -0.01038632825130903, 0.013049489341388268, -0.7999365234375, -0.118553466796875, 10.3129541015625
1520530963718448731, -0.043143209659283664, 0.009321063815277334, 0.009587379924285258, -0.8071215820312501, -0.10777587890625001, 10.211165771484376
1520530963723464731, -0.03834951969714103, 0.031158984753927088, 0.0055926382891664005, -0.7149133300781251, -0.0383203125, 10.144105224609376
1520530963728479731, -0.031158984753927088, 0.05193164125654515, 0.006125270507182248, -0.760418701171875, -0.00718505859375, 10.117760009765625
1520530963733495731, -0.027430559227816155, 0.06578007892495719, 0.005858954398174325, -0.83586181640625, -0.003592529296875, 10.225535888671876
1520530963738512731, -0.022370553156665602, 0.06737797557900473, 0.006125270507182248, -0.8382568359375, 0.0047900390625, 10.290201416015625
1520530963743527731, -0.018375811521546746, 0.05992112452678287, 0.010120012142301106, -0.83107177734375, -0.053887939453125006, 10.311756591796875
1520530963748541731, -0.014114753777419964, 0.05539375067364816, 0.016245282649483356, -0.83586181640625, -0.124541015625, 10.32732421875
1520530963753558731, -0.0055926382891664005, 0.05379585401960062, 0.02077265650261806, -0.889749755859375, -0.130528564453125, 10.318941650390625
1520530963758574731, -0.001331580545039619, 0.055926382891664, 0.021038972611625982, -0.9244775390625001, -0.132923583984375, 10.34408935546875
1520530963763589731, 0.004527373853134706, 0.05779059565471947, 0.019707392066586366, -0.88855224609375, -0.154478759765625, 10.3225341796875
1520530963768606731, 0.013315805450396193, 0.061519021180830406, 0.017044230976507126, -0.8945397949218751, -0.22752685546875, 10.354866943359376
1520530963773622731, 0.01864212763055467, 0.060720072853806636, 0.012516857123372421, -0.89813232421875, -0.25626708984375, 10.360854492187501
1520530963778636731, 0.02556634646476069, 0.05938849230876701, 0.00692421883420602, -0.925675048828125, -0.264649658203125, 10.356064453125
1520530963783652731, 0.032756881407974635, 0.05725796343670363, 0.0029294771990871623, -0.93166259765625, -0.296982421875, 10.340496826171876
1520530963788669731, 0.03834951969714103, 0.050866376820513454, -0.003994741635118857, -0.901724853515625, -0.35326538085937503, 10.300979003906251
1520530963793684731, 0.043942157986307434, 0.04926848016646591, -0.011451592687340724, -0.8945397949218751, -0.33290771484375004, 10.326126708984376
1520530963798699731, 0.05113269292952138, 0.04767058351241837, -0.018375811521546746, -0.91729248046875, -0.271834716796875, 10.326126708984376
1520530963803715731, 0.05725796343670363, 0.04793689962142629, -0.02476739813773692, -0.87897216796875, -0.22752685546875, 10.29618896484375
1520530963808731731, 0.0569916473276957, 0.04953479627547384, -0.028762139772855775, -0.833466796875, -0.16166381835937502, 10.34408935546875
1520530963813745731, 0.0580569117637274, 0.05113269292952138, -0.02849582366384785, -0.795146484375, -0.085023193359375, 10.318941650390625
1520530963818763731, 0.05912217619975909, 0.04980111238448176, -0.02716424311880823, -0.769998779296875, -0.01916015625, 10.37282958984375
1520530963823779731, 0.056192699000671927, 0.044741106313331204, -0.024501082028728992, -0.7580236816406251, 0.015567626953125, 10.435100097656251
1520530963828793731, 0.05512743456464023, 0.039681100242180654, -0.017044230976507126, -0.72090087890625, 0.08382568359375, 10.38719970703125
1520530963833810731, 0.050866376820513454, 0.03728425526110934, -0.008788431597261486, -0.702938232421875, 0.094603271484375, 10.414742431640626
1520530963838825731, 0.04793689962142629, 0.03755057137011726, -0.0005326322180158477, -0.731678466796875, 0.13172607421875002, 10.376422119140626
1520530963843841731, 0.04500742242233913, 0.03675162304309349, 0.009853696033293183, -0.7532336425781251, 0.1676513671875, 10.340496826171876
1520530963848857731, 0.04074636467821235, 0.03755057137011726, 0.018375811521546746, -0.786763916015625, 0.17124389648437502, 10.357261962890625
1520530963853872731, 0.03675162304309349, 0.03728425526110934, 0.02849582366384785, -0.810714111328125, 0.17124389648437502, 10.32732421875
1520530963858889731, 0.03382214584400633, 0.037816887479125184, 0.03941478413317273, -0.8286767578125, 0.14130615234375002, 10.335706787109375
1520530963863903731, 0.03249056529896671, 0.03648530693408557, 0.049002164057457984, -0.8562194824218751, 0.094603271484375, 10.359656982421875
1520530963868918731, 0.029561088099879545, 0.03542004249805387, 0.06018744063579079, -0.79275146484375, 0.1293310546875, 10.38240966796875
1520530963873935731, 0.02769687533682408, 0.037017939152101415, 0.07110640110511567, -0.74964111328125, 0.147293701171875, 10.354866943359376
1520530963878951731, 0.02423476591972107, 0.033555829734998405, 0.08788431597261487, -0.760418701171875, 0.183218994140625, 10.38240966796875
1520530963883967731, 0.021837920938649755, 0.03302319751698256, 0.10093380531400313, -0.7807763671875, 0.20836669921875, 10.436297607421876
1520530963888983731, 0.020506340393610135, 0.03222424918995878, 0.11451592687340725, -0.769998779296875, 0.238304443359375, 10.520123291015626
1520530963893998731, 0.016245282649483356, 0.026098978682776535, 0.12783173232380343, -0.74964111328125, 0.238304443359375, 10.56922119140625
1520530963899013731, 0.010120012142301106, 0.02077265650261806, 0.14274543442824716, -0.767603759765625, 0.26225463867187504, 10.611134033203125
1520530963904029731, 0.004793689962142629, 0.017576863194522972, 0.15872440096872262, -0.74964111328125, 0.276624755859375, 10.61233154296875
1520530963909045731, 0.0010652644360316954, 0.01597896654047543, 0.17177389031011087, -0.795146484375, 0.238304443359375, 10.61233154296875
1520530963914060731, -0.004527373853134706, 0.021038972611625982, 0.17789916081729312, -0.849034423828125, 0.20836669921875, 10.591973876953126
1520530963919077731, -0.01038632825130903, 0.022636869265673525, 0.1821602185614199, -0.795146484375, 0.22153930664062502, 10.596763916015625
1520530963924092731, -0.014913702104443736, 0.025300030355752765, 0.1845570635424912, -0.7915539550781251, 0.13412109375, 10.603948974609375
1520530963929107731, -0.01651159875849128, 0.02423476591972107, 0.1856223279785229, -0.8813671875000001, 0.03113525390625, 10.618319091796875
1520530963934123731, -0.017576863194522972, 0.021837920938649755, 0.18056232190737237, -0.942440185546875, -0.06346801757812501, 10.593171386718751
1520530963939140731, -0.017044230976507126, 0.01464738599543581, 0.17283915474614256, -0.96998291015625, -0.124541015625, 10.563233642578126
1520530963944154731, -0.013049489341388268, 0.012250541014364496, 0.16245282649483353, -0.825084228515625, -0.08861572265625, 10.479407958984375
1520530963949170731, -0.004793689962142629, 0.01171790879634865, 0.1597896654047543, -0.731678466796875, 0.029937744140625, 10.394384765625
1520530963954187731, 0.006391586616190172, 0.015180018213451659, 0.164317039257889, -0.690963134765625, 0.164058837890625, 10.255473632812501
1520530963959202731, 0.015180018213451659, 0.02210423704765768, 0.17044230976507124, -0.63468017578125, 0.279019775390625, 10.174042968750001
1520530963964217731, 0.025033714246744842, 0.0290284558818637, 0.18375811521546745, -0.621507568359375, 0.37242553710937504, 10.132130126953125
1520530963969234731, 0.04101268078722027, 0.03488741028003802, 0.19840550121090325, -0.63947021484375, 0.37362304687500003, 10.1405126953125
1520530963974249731, 0.05752427954571155, 0.03728425526110934, 0.21252025498832322, -0.7041357421875001, 0.3496728515625, 10.203980712890626
1520530963979264731, 0.07137271721412358, 0.03728425526110934, 0.2279665893107828, -0.7532336425781251, 0.3209326171875, 10.263856201171876
1520530963984280731, 0.0860201032095594, 0.037816887479125184, 0.2391518658891156, -0.743653564453125, 0.247884521484375, 10.332114257812501
1520530963989296731, 0.10120012142301106, 0.03542004249805387, 0.25086977468546423, -0.88855224609375, 0.137713623046875, 10.34408935546875
1520530963994311731, 0.11638013963646272, 0.037816887479125184, 0.25752767741066235, -0.8478369140625001, 0.045505371093750004, 10.31055908203125
1520530963999328731, 0.13022857730487475, 0.036218990825077645, 0.2599245223917337, -0.839454345703125, -0.015567626953125, 10.330916748046876
1520530964004343731, 0.14487596330031058, 0.033555829734998405, 0.2679140056619714, -0.83586181640625, -0.034727783203125, 10.2363134765625
1520530964009359731, 0.1597896654047543, 0.034354778062022175, 0.2713761150790744, -0.839454345703125, -0.034727783203125, 10.106982421875001
1520530964014373731, 0.17576863194522974, 0.03808320358813311, 0.26977821842502686, -0.8322692871093751, -0.08382568359375, 10.055489501953126
1520530964019390731, 0.18828548906860215, 0.04447479020432328, 0.2679140056619714, -0.8622070312500001, -0.137713623046875, 9.992021484375
1520530964024406731, 0.20240024284602212, 0.05193164125654515, 0.25859294184669407, -0.9244775390625001, -0.25267456054687504, 9.9584912109375
1520530964029422731, 0.2119876227703074, 0.06018744063579079, 0.2402171303251473, -1.07296875, -0.39517822265625, 9.9680712890625
1520530964034438731, 0.2221076349126085, 0.06631271114297303, 0.21944447382252924, -1.1436218261718751, -0.5352868652343751, 10.00399658203125
1520530964039452731, 0.23169501483689373, 0.07510114274023452, 0.19414444346677648, -1.2765454101562501, -0.611927490234375, 10.110574951171875
1520530964044468731, 0.23648870479903636, 0.08096009713840885, 0.16831178089300786, -1.270557861328125, -0.6059399414062501, 10.177635498046875
1520530964049485731, 0.2391518658891156, 0.08442220655551186, 0.1475391243903898, -1.22625, -0.604742431640625, 10.199190673828125
1520530964054500731, 0.23995081421613937, 0.08708536764559109, 0.12969594508685892, -1.234632568359375, -0.523311767578125, 10.26265869140625
1520530964059515731, 0.23702133701705222, 0.08815063208162278, 0.11291803021935971, -1.174757080078125, -0.4071533203125, 10.26265869140625
1520530964064531731, 0.23249396316391752, 0.08761799986360694, 0.1038632825130903, -1.052611083984375, -0.28021728515625, 10.275831298828125
1520530964069547731, 0.22716764098375902, 0.08735168375459902, 0.10040117309598728, -0.96998291015625, -0.197589111328125, 10.323731689453126
1520530964074563731, 0.22157500269459263, 0.08122641324741676, 0.10093380531400313, -0.983155517578125, -0.17004638671875, 10.441087646484375
1520530964079579731, 0.2122539388793153, 0.06711165946999681, 0.10093380531400313, -0.8921447753906251, -0.104183349609375, 10.527308349609376
1520530964084595731, 0.20506340393610137, 0.0458063707493629, 0.10333065029507445, -0.83586181640625, -0.017962646484375, 10.587183837890626
1520530964089610731, 0.19920444953792704, 0.021038972611625982, 0.11238539800134385, -0.77359130859375, 0.01916015625, 10.585986328125001
1520530964094625731, 0.19414444346677648, -0.0055926382891664005, 0.12223909403463704, -0.702938232421875, 0.077838134765625, 10.593171386718751
1520530964099641731, 0.19148128237669723, -0.034354778062022175, 0.13502226726701738, -0.72090087890625, 0.089813232421875, 10.64107177734375
1520530964104657731, 0.18935075350463385, -0.06178533728983833, 0.1419464861012234, -0.741258544921875, 0.082628173828125, 10.618319091796875
1520530964109673731, 0.1909486501586814, -0.08628641931856733, 0.1475391243903898, -0.743653564453125, 0.06586303710937501, 10.64107177734375
1520530964114688731, 0.19467707568479234, -0.10865697247523293, 0.14966965326245318, -0.756826171875, 0.037122802734375, 10.7153173828125
1520530964119703731, 0.19813918510189535, -0.12676646788777174, 0.14993596937146111, -0.798739013671875, -0.0047900390625, 10.681787109375001
1520530964124721731, 0.20373182339106174, -0.14114753777419964, 0.1483380727174136, -0.808319091796875, -0.026345214843750003, 10.625504150390626
1520530964129735731, 0.20959077778923607, -0.15819176875070676, 0.14221280221023133, -0.8430468750000001, -0.0431103515625, 10.594368896484376
1520530964134752731, 0.21598236440542623, -0.17044230976507124, 0.13821806057511246, -0.8765771484375, -0.0335302734375, 10.56443115234375
1520530964139766731, 0.223705531566656, -0.1800296896893565, 0.13235910617693813, -0.9148974609375, -0.039517822265625, 10.565628662109376
1520530964144782731, 0.22983080207383827, -0.18508969576050707, 0.12383699068868459, -0.9053173828125001, -0.023950195312500002, 10.575208740234375
1520530964149798731, 0.23648870479903636, -0.19228023070372102, 0.1206411973805895, -0.8861572265625001, 0.009580078125, 10.625504150390626
1520530964154815731, 0.241282394761179, -0.1976065528838795, 0.11531487520043102, -0.89813232421875, 0.017962646484375, 10.61712158203125
1520530964159831731, 0.24341292363324238, -0.20026971397395874, 0.11238539800134385, -0.9077124023437501, 0.01676513671875, 10.66502197265625
1520530964164844731, 0.24767398137736918, -0.20160129451899836, 0.10892328858424084, -0.87418212890625, -0.003592529296875, 10.71052734375
1520530964169861731, 0.2527339874485197, -0.20293287506403795, 0.10466223084011407, -0.908909912109375, 0.025147705078125002, 10.645861816406251
1520530964174878731, 0.25166872301248805, -0.20506340393610137, 0.10093380531400313, -0.884959716796875, -0.013172607421875001, 10.67939208984375
1520530964179893731, 0.2524676713395118, -0.2055960361541172, 0.09667274756987636, -0.8669970703125001, -0.056282958984375006, 10.687774658203125
1520530964184908731, 0.25060345857645633, -0.2021339267370142, 0.09081379317170203, -0.8837622070312501, -0.082628173828125, 10.74645263671875
1520530964189924731, 0.24341292363324238, -0.1989381334289191, 0.0849548387735277, -0.8921447753906251, -0.125738525390625, 10.69376220703125
1520530964194939731, 0.23888554978010768, -0.19387812735776855, 0.07936220048436131, -0.8837622070312501, -0.08861572265625, 10.632689208984376
1520530964199956731, 0.23142869872788582, -0.188818121286618, 0.0727042977591632, -0.863404541015625, -0.07903564453125, 10.691367187500001
1520530964204972731, 0.2245044798936798, -0.18349179910645952, 0.06764429168801266, -0.871787109375, -0.116158447265625, 10.656639404296875
1520530964209987731, 0.21518341607840247, -0.1773665285992773, 0.06418218227090965, -0.8382568359375, -0.08382568359375, 10.65065185546875
1520530964215002731, 0.20479708782709344, -0.17044230976507124, 0.05992112452678287, -0.846639404296875, -0.06466552734375, 10.62670166015625
1520530964220019731, 0.19307917903074479, -0.1629854587128494, 0.0569916473276957, -0.841849365234375, -0.044307861328125, 10.631491699218751
1520530964225034731, 0.1821602185614199, -0.15020228548046904, 0.05432848623761646, -0.8178991699218751, -0.041912841796875, 10.625504150390626
1520530964230050731, 0.17150757420110296, -0.13715279613908077, 0.049002164057457984, -0.8622070312500001, -0.009580078125, 10.587183837890626
1520530964235066731, 0.15712650431467506, -0.12170646181662119, 0.04234426133225989, -0.8969348144531251, -0.029937744140625, 10.61233154296875
1520530964240081731, 0.14434333108229472, -0.10412959862209822, 0.03542004249805387, -0.8921447753906251, -0.077838134765625, 10.593171386718751
1520530964245096731, 0.13022857730487475, -0.08468852266451977, 0.027963191445832, -0.8861572265625001, -0.07065307617187501, 10.593171386718751
1520530964250114731, 0.1150485590914231, -0.06418218227090965, 0.020506340393610135, -0.8921447753906251, -0.10059082031250001, 10.589578857421875
1520530964255129731, 0.09640643146086843, -0.04340952576829159, 0.012250541014364496, -0.846639404296875, -0.09819580078125001, 10.55964111328125
1520530964260145731, 0.07989483270237716, -0.025033714246744842, 0.003728425526110934, -0.8262817382812501, -0.12693603515625002, 10.577603759765626
1520530964265158731, 0.06045375674479871, -0.007989483270237714, -0.005326322180158476, -0.8023315429687501, -0.10777587890625001, 10.620714111328125
1520530964270176731, 0.0402137324601965, 0.006391586616190172, -0.009853696033293183, -0.741258544921875, -0.10059082031250001, 10.642269287109375
1520530964275191731, 0.021305288720633905, 0.01997370817559429, -0.010918960469324878, -0.7256909179687501, -0.096998291015625, 10.625504150390626
1520530964280208731, 0.0, 0.02822950755483993, -0.013049489341388268, -0.6849755859375001, -0.0335302734375, 10.647059326171876
1520530964285222731, -0.02077265650261806, 0.03488741028003802, -0.014114753777419964, -0.690963134765625, -0.0143701171875, 10.611134033203125
1520530964290238731, -0.04154531300523612, 0.04181162911424404, -0.011984224905356573, -0.6765930175781251, 0.008382568359375, 10.65544189453125
1520530964295253731, -0.05992112452678287, 0.045540054640354974, -0.012783173232380344, -0.61552001953125, 0.029937744140625, 10.6099365234375
1520530964300268731, -0.07723167161229791, 0.04713795129440252, -0.013049489341388268, -0.613125, 0.028740234375, 10.608739013671876
1520530964305285731, -0.09400958647979711, 0.0513990090385293, -0.009853696033293183, -0.6251000976562501, 0.09101074218750001, 10.585986328125001
1520530964310302731, -0.1105211852382884, 0.05539375067364816, -0.008522115488253563, -0.621507568359375, 0.124541015625, 10.57640625
1520530964315316731, -0.12330435847066874, 0.05486111845563231, -0.006657902725198096, -0.6035449218750001, 0.10538085937500001, 10.55006103515625
1520530964320334731, -0.13475595115800945, 0.062317969507854176, -0.005858954398174325, -0.67300048828125, 0.125738525390625, 10.534493408203126
1520530964325349731, -0.14274543442824716, 0.0692421883420602, -0.006391586616190172, -0.678988037109375, 0.10777587890625001, 10.4853955078125
1520530964330364731, -0.1518001821345166, 0.07723167161229791, -0.009321063815277334, -0.726888427734375, 0.0814306640625, 10.511740722656251
1520530964335380731, -0.1584580848597147, 0.08522115488253562, -0.01597896654047543, -0.7640112304687501, 0.061072998046875, 10.5380859375
1520530964340396731, -0.16271914260384146, 0.09347695426178126, -0.023169501483689375, -0.808319091796875, 0.0431103515625, 10.496173095703126
1520530964345410731, -0.16511598758491278, 0.10066748920499521, -0.02716424311880823, -0.760418701171875, 0.050295410156250005, 10.487790527343751
1520530964350427731, -0.16591493591193654, 0.10546117916713783, -0.030093720317895395, -0.722098388671875, 0.086220703125, 10.520123291015626
1520530964355442731, -0.1699096775470554, 0.10918960469324877, -0.03328951362599048, -0.705333251953125, 0.132923583984375, 10.5380859375
1520530964360457731, -0.16777914867499202, 0.11265171411035178, -0.03249056529896671, -0.667012939453125, 0.17603393554687502, 10.522518310546875
1520530964365473731, -0.16245282649483353, 0.111852765783328, -0.02849582366384785, -0.60114990234375, 0.26105712890625, 10.518925781250001
1520530964370490731, -0.16112124594979393, 0.1073253919301933, -0.023702133701705222, -0.568817138671875, 0.329315185546875, 10.562036132812501
1520530964375506731, -0.15579492376963544, 0.1027980180770586, -0.015446334322459582, -0.549656982421875, 0.3448828125, 10.563233642578126
1520530964380521731, -0.14913702104443735, 0.09640643146086843, -0.006657902725198096, -0.54366943359375, 0.38200561523437504, 10.529703369140625
1520530964385537731, -0.1454085955183264, 0.08841694819063071, 0.001597896654047543, -0.592767333984375, 0.336500244140625, 10.548863525390626
1520530964390553731, -0.136353847812057, 0.08122641324741676, 0.007456851052221868, -0.59156982421875, 0.295784912109375, 10.546468505859375
1520530964395567731, -0.12703278399677967, 0.07643272328527415, 0.01171790879634865, -0.6574328613281251, 0.228724365234375, 10.54527099609375
1520530964400584731, -0.11824435239951818, 0.06684534336098888, 0.012516857123372421, -0.710123291015625, 0.21794677734375, 10.556048583984376
1520530964405599731, -0.108390656366225, 0.05858954398174324, 0.012783173232380344, -0.7664062500000001, 0.1772314453125, 10.496173095703126
1520530964410616731, -0.09640643146086843, 0.053529537910592694, 0.01384843766841204, -0.81191162109375, 0.108973388671875, 10.426717529296875
1520530964415630731, -0.08708536764559109, 0.04846953183944214, 0.013315805450396193, -0.8178991699218751, 0.06945556640625, 10.426717529296875
1520530964420647731, -0.07456851052221868, 0.044741106313331204, 0.009853696033293183, -0.8669970703125001, 0.0335302734375, 10.402767333984375
1520530964425663731, -0.06551376281594927, 0.043143209659283664, 0.005326322180158476, -0.890947265625, 0.03113525390625, 10.366842041015625
1520530964430679731, -0.05432848623761646, 0.04500742242233913, 0.0029294771990871623, -0.89334228515625, 0.034727783203125, 10.359656982421875
1520530964435694731, -0.03941478413317273, 0.04633900296737875, 0.0005326322180158477, -0.8478369140625001, 0.029937744140625, 10.3225341796875
1520530964440709731, -0.027430559227816155, 0.048203215730434214, -0.001597896654047543, -0.889749755859375, 0.023950195312500002, 10.275831298828125
1520530964445724731, -0.015180018213451659, 0.04793689962142629, -0.001331580545039619, -0.8765771484375, 0.03113525390625, 10.302176513671876
1520530964450741731, -0.004261057744126781, 0.04713795129440252, -0.0029294771990871623, -0.8286767578125, 0.080233154296875, 10.357261962890625
1520530964455757731, 0.005858954398174325, 0.04500742242233913, -0.0021305288720633907, -0.781973876953125, 0.11017089843750001, 10.406359863281251
1520530964460772731, 0.014381069886427887, 0.04340952576829159, 0.0010652644360316954, -0.7963439941406251, 0.13651611328125002, 10.4374951171875
1520530964465787731, 0.021837920938649755, 0.044741106313331204, 0.003728425526110934, -0.79754150390625, 0.13651611328125002, 10.46384033203125
1520530964470804731, 0.02849582366384785, 0.04340952576829159, 0.003728425526110934, -0.7580236816406251, 0.13651611328125002, 10.474617919921876
1520530964475820731, 0.033555829734998405, 0.03994741635118858, 0.005326322180158476, -0.7580236816406251, 0.130528564453125, 10.5141357421875
1520530964480835731, 0.038615835806148954, 0.03888215191515688, 0.006657902725198096, -0.7915539550781251, 0.0622705078125, 10.52132080078125
1520530964485850731, 0.041278996896228194, 0.0346210941710301, 0.007989483270237714, -0.808319091796875, 0.07544311523437501, 10.5045556640625
1520530964490866731, 0.04261057744126781, 0.034354778062022175, 0.010120012142301106, -0.779578857421875, 0.086220703125, 10.49258056640625
1520530964495881731, 0.040480048569204424, 0.034354778062022175, 0.012516857123372421, -0.7999365234375, 0.061072998046875, 10.512938232421876
1520530964500898731, 0.042077945223251964, 0.030360036426903318, 0.01384843766841204, -0.76880126953125, 0.07544311523437501, 10.529703369140625
1520530964505913731, 0.04420847409531536, 0.023169501483689375, 0.01597896654047543, -0.756826171875, 0.056282958984375006, 10.528505859375
1520530964510929731, 0.04234426133225989, 0.014913702104443736, 0.020506340393610135, -0.7256909179687501, 0.09819580078125001, 10.529703369140625
1520530964515944731, 0.04181162911424404, 0.010918960469324878, 0.025300030355752765, -0.7711962890625, 0.087418212890625, 10.551258544921875
1520530964520961731, 0.04074636467821235, 0.010652644360316953, 0.031158984753927088, -0.7664062500000001, 0.07903564453125, 10.518925781250001
1520530964525976731, 0.03994741635118858, 0.010120012142301106, 0.035153726389045944, -0.83586181640625, 0.080233154296875, 10.518925781250001
1520530964530992731, 0.037816887479125184, 0.008522115488253563, 0.039681100242180654, -0.8095166015625, 0.067060546875, 10.453062744140626
1520530964536008731, 0.03595267471606972, 0.01038632825130903, 0.040480048569204424, -0.8430468750000001, 0.055085449218750006, 10.42552001953125
1520530964541024731, 0.03408846195301425, 0.011185276578332801, 0.04261057744126781, -0.833466796875, 0.028740234375, 10.400372314453126
1520530964546039731, 0.03328951362599048, 0.013315805450396193, 0.04793689962142629, -0.820294189453125, 0.008382568359375, 10.3704345703125
1520530964551056731, 0.03195793308095086, 0.015446334322459582, 0.05060006071150553, -0.8214916992187501, -0.027542724609375003, 10.378817138671875
1520530964556070731, 0.03062635253591124, 0.015446334322459582, 0.053529537910592694, -0.79754150390625, -0.0059875488281250005, 10.390792236328126
1520530964561086731, 0.032756881407974635, 0.012516857123372421, 0.05858954398174324, -0.789158935546875, 0.003592529296875, 10.376422119140626
1520530964566101731, 0.030093720317895395, 0.007989483270237714, 0.06098638896281456, -0.822689208984375, 0.013172607421875001, 10.36564453125
1520530964571118731, 0.027430559227816155, 0.007456851052221868, 0.06604639503396512, -0.8155041503906251, -0.0383203125, 10.400372314453126
1520530964576134731, 0.0234358175926973, 0.006125270507182248, 0.07163903332313151, -0.8646020507812501, -0.026345214843750003, 10.402767333984375
1520530964581149731, 0.02210423704765768, 0.007989483270237714, 0.07243798165015529, -0.8945397949218751, -0.02155517578125, 10.441087646484375
1520530964586164731, 0.021305288720633905, 0.011185276578332801, 0.07456851052221868, -0.887354736328125, -0.022752685546875002, 10.467432861328126
1520530964591181731, 0.019174759848570515, 0.01464738599543581, 0.07456851052221868, -0.884959716796875, -0.01916015625, 10.484197998046875
1520530964596195731, 0.017843179303530896, 0.01731054708551505, 0.07536745884924245, -0.8921447753906251, -0.010777587890625, 10.41593994140625
1520530964601212731, 0.016245282649483356, 0.021038972611625982, 0.07456851052221868, -0.887354736328125, -0.008382568359375, 10.390792236328126
1520530964606228731, 0.014114753777419964, 0.022636869265673525, 0.0727042977591632, -0.871787109375, -0.0143701171875, 10.400372314453126
1520530964611243731, 0.01384843766841204, 0.021837920938649755, 0.07004113666908397, -0.8370593261718751, 0.029937744140625, 10.359656982421875
1520530964616257731, 0.013315805450396193, 0.019707392066586366, 0.0727042977591632, -0.83107177734375, 0.026345214843750003, 10.374027099609375
1520530964621275731, 0.013315805450396193, 0.017843179303530896, 0.07297061386817114, -0.8214916992187501, 0.052690429687500005, 10.386002197265626
1520530964626291731, 0.011185276578332801, 0.018109495412538822, 0.07483482663122659, -0.8131091308593751, 0.05748046875, 10.4087548828125
1520530964631306731, 0.009321063815277334, 0.019707392066586366, 0.0737695621951949, -0.833466796875, 0.086220703125, 10.375224609375001
1520530964636323731, 0.007456851052221868, 0.01997370817559429, 0.07190534943213944, -0.839454345703125, 0.07424560546875, 10.4183349609375
1520530964641337731, 0.004527373853134706, 0.021571604829641832, 0.07190534943213944, -0.86939208984375, 0.052690429687500005, 10.41593994140625
1520530964646353731, 0.003994741635118857, 0.022636869265673525, 0.06977482056007604, -0.8753796386718751, 0.047900390625000004, 10.4087548828125
1520530964651369731, 0.003728425526110934, 0.026631610900792385, 0.06764429168801266, -0.8430468750000001, 0.049097900390625004, 10.38719970703125
1520530964656385731, 0.0029294771990871623, 0.02849582366384785, 0.06684534336098888, -0.8562194824218751, -0.00718505859375, 10.407557373046876
1520530964661401731, 0.00026631610900792384, 0.03249056529896671, 0.06178533728983833, -0.8753796386718751, -0.06586303710937501, 10.368039550781251
1520530964666415731, -0.0007989483270237715, 0.03328951362599048, 0.06098638896281456, -0.865799560546875, -0.08861572265625, 10.357261962890625
1520530964671432731, -0.0005326322180158477, 0.03808320358813311, 0.05645901510967986, -0.863404541015625, -0.07903564453125, 10.31055908203125
1520530964676448731, 0.0, 0.03675162304309349, 0.053529537910592694, -0.858614501953125, -0.11735595703125, 10.298583984375
1520530964681463731, -0.001331580545039619, 0.03888215191515688, 0.04980111238448176, -0.822689208984375, -0.07304809570312501, 10.3033740234375
1520530964686479731, -0.001864212763055467, 0.03808320358813311, 0.04607268685837083, -0.8131091308593751, -0.05748046875, 10.3512744140625
1520530964691494731, -0.0029294771990871623, 0.03328951362599048, 0.04500742242233913, -0.8047265625000001, -0.03592529296875, 10.3704345703125
1520530964696509731, -0.003728425526110934, 0.033555829734998405, 0.04340952576829159, -0.83586181640625, -0.003592529296875, 10.38240966796875
1520530964701526731, -0.004793689962142629, 0.0346210941710301, 0.0402137324601965, -0.8131091308593751, -0.001197509765625, 10.362052001953126
1520530964706542731, -0.003728425526110934, 0.034354778062022175, 0.036218990825077645, -0.8178991699218751, -0.0335302734375, 10.40156982421875
1520530964711558731, -0.005326322180158476, 0.03488741028003802, 0.032756881407974635, -0.861009521484375, -0.03113525390625, 10.4183349609375
1520530964716571731, -0.005326322180158476, 0.035153726389045944, 0.025832662573768612, -0.83586181640625, -0.077838134765625, 10.386002197265626
1520530964721589731, -0.006657902725198096, 0.03595267471606972, 0.018375811521546746, -0.8669970703125001, -0.086220703125, 10.427915039062501
1520530964726605731, -0.006125270507182248, 0.03328951362599048, 0.01171790879634865, -0.8729846191406251, -0.106578369140625, 10.374027099609375
1520530964731620731, -0.007190534943213944, 0.03382214584400633, 0.006391586616190172, -0.8837622070312501, -0.10538085937500001, 10.336904296875
1520530964736636731, -0.005858954398174325, 0.033555829734998405, 0.0023968449810713144, -0.83586181640625, -0.1197509765625, 10.3895947265625
1520530964741652731, -0.004793689962142629, 0.032756881407974635, 0.00026631610900792384, -0.861009521484375, -0.09580078125000001, 10.362052001953126
1520530964746666731, -0.004261057744126781, 0.032756881407974635, -0.003728425526110934, -0.871787109375, -0.07304809570312501, 10.294991455078126
1520530964751683731, -0.001597896654047543, 0.031691616971942935, -0.006657902725198096, -0.8370593261718751, -0.07065307617187501, 10.33450927734375
1520530964756698731, 0.003195793308095086, 0.03195793308095086, -0.008522115488253563, -0.833466796875, -0.03592529296875, 10.321336669921875
1520530964761713731, 0.004261057744126781, 0.03222424918995878, -0.009321063815277334, -0.846639404296875, -0.01676513671875, 10.388397216796875
1520530964766729731, 0.004527373853134706, 0.03408846195301425, -0.009587379924285258, -0.83107177734375, -0.00718505859375, 10.394384765625
1520530964771746731, 0.006391586616190172, 0.0346210941710301, -0.00692421883420602, -0.8286767578125, 0.02155517578125, 10.421927490234376
1520530964776762731, 0.006391586616190172, 0.03328951362599048, -0.005858954398174325, -0.841849365234375, 0.011975097656250001, 10.451865234375001
1520530964781777731, 0.006391586616190172, 0.032756881407974635, -0.004261057744126781, -0.8705895996093751, 0.01916015625, 10.448272705078125
1520530964786793731, 0.006125270507182248, 0.03382214584400633, -0.004793689962142629, -0.8669970703125001, 0.023950195312500002, 10.484197998046875
1520530964791808731, 0.006657902725198096, 0.035153726389045944, -0.0023968449810713144, -0.8669970703125001, 0.02155517578125, 10.493778076171875
1520530964796823731, 0.003195793308095086, 0.0346210941710301, -0.003728425526110934, -0.887354736328125, 0.029937744140625, 10.528505859375
1520530964801840731, 0.005858954398174325, 0.0346210941710301, -0.004793689962142629, -0.899329833984375, 0.0059875488281250005, 10.512938232421876
1520530964806855731, 0.004527373853134706, 0.03302319751698256, -0.005326322180158476, -0.8765771484375, 0.028740234375, 10.46384033203125
1520530964811872731, 0.004261057744126781, 0.03062635253591124, -0.006125270507182248, -0.901724853515625, 0.015567626953125, 10.466235351562501
1520530964816887731, 0.005858954398174325, 0.02769687533682408, -0.007190534943213944, -0.908909912109375, 0.00239501953125, 10.469827880859375
1520530964821904731, 0.0055926382891664005, 0.023169501483689375, -0.007456851052221868, -0.8646020507812501, 0.029937744140625, 10.420729980468751
1520530964826919731, 0.007989483270237714, 0.01997370817559429, -0.003195793308095086, -0.8406518554687501, 0.03592529296875, 10.420729980468751
1520530964831934731, 0.013049489341388268, 0.021571604829641832, -0.0007989483270237715, -0.863404541015625, 0.026345214843750003, 10.450667724609376
1520530964836951731, 0.014913702104443736, 0.018375811521546746, 0.004793689962142629, -0.846639404296875, 0.08382568359375, 10.419532470703125
1520530964841966731, 0.018375811521546746, 0.01464738599543581, 0.011451592687340724, -0.803529052734375, 0.104183349609375, 10.46863037109375
1520530964846980731, 0.022636869265673525, 0.013315805450396193, 0.01864212763055467, -0.8071215820312501, 0.1149609375, 10.474617919921876
1520530964851997731, 0.02849582366384785, 0.010120012142301106, 0.023968449810713145, -0.798739013671875, 0.10298583984375001, 10.459050292968751
1520530964857013731, 0.03142530086293501, 0.007723167161229791, 0.030093720317895395, -0.8322692871093751, 0.0622705078125, 10.4470751953125
1520530964862028731, 0.03648530693408557, 0.004527373853134706, 0.036218990825077645, -0.8322692871093751, 0.03592529296875, 10.4853955078125
1520530964867043731, 0.038615835806148954, 0.001331580545039619, 0.04154531300523612, -0.8430468750000001, -0.013172607421875001, 10.4566552734375
1520530964872060731, 0.041278996896228194, -0.0021305288720633907, 0.04367584187729951, -0.8861572265625001, -0.04071533203125, 10.457852783203126
1520530964877076731, 0.04500742242233913, -0.004261057744126781, 0.043143209659283664, -0.929267578125, -0.049097900390625004, 10.503358154296876
1520530964882091731, 0.04713795129440252, -0.007723167161229791, 0.03941478413317273, -0.93166259765625, -0.080233154296875, 10.47821044921875
1520530964887108731, 0.046605319076386674, -0.009853696033293183, 0.03595267471606972, -0.93645263671875, -0.09101074218750001, 10.457852783203126
1520530964892123731, 0.05113269292952138, -0.009587379924285258, 0.03142530086293501, -0.9604028320312501, -0.080233154296875, 10.481802978515626
1520530964897137731, 0.05486111845563231, -0.008522115488253563, 0.02769687533682408, -0.9136999511718751, -0.02155517578125, 10.469827880859375
1520530964902154731, 0.05459480234662439, -0.005326322180158476, 0.025300030355752765, -0.9304650878906251, 0.00239501953125, 10.443482666015626
1520530964907170731, 0.0569916473276957, -0.003195793308095086, 0.024501082028728992, -0.920885009765625, -0.0047900390625, 10.395582275390625
1520530964912185731, 0.05965480841777494, -0.0007989483270237715, 0.023968449810713145, -0.91729248046875, 0.009580078125, 10.390792236328126
1520530964917201731, 0.05938849230876701, 0.0010652644360316954, 0.021837920938649755, -0.906514892578125, -0.00718505859375, 10.371632080078125
1520530964922216731, 0.05938849230876701, 0.005858954398174325, 0.021837920938649755, -0.944835205078125, -0.0622705078125, 10.371632080078125
1520530964927232731, 0.060720072853806636, 0.011185276578332801, 0.021837920938649755, -0.9436376953125001, -0.077838134765625, 10.339299316406251
1520530964932248731, 0.05992112452678287, 0.01651159875849128, 0.019707392066586366, -0.928070068359375, -0.12094848632812501, 10.357261962890625
1520530964937264731, 0.05832322787273532, 0.01944107595757844, 0.015712650431467506, -0.9651928710937501, -0.1389111328125, 10.375224609375001
1520530964942279731, 0.05965480841777494, 0.021305288720633905, 0.009321063815277334, -0.978365478515625, -0.130528564453125, 10.420729980468751
1520530964947294731, 0.05938849230876701, 0.021571604829641832, 0.005326322180158476, -0.8969348144531251, -0.12334350585937501, 10.421927490234376
1520530964952311731, 0.05752427954571155, 0.02210423704765768, 0.002663161090079238, -0.9148974609375, -0.10538085937500001, 10.40396484375
1520530964957327731, 0.05539375067364816, 0.022636869265673525, 0.002663161090079238, -0.880169677734375, -0.14609619140625002, 10.400372314453126
1520530964962342731, 0.05379585401960062, 0.025300030355752765, 0.001331580545039619, -0.89813232421875, -0.104183349609375, 10.393187255859376
1520530964967358731, 0.05193164125654515, 0.02556634646476069, 0.00026631610900792384, -0.9412426757812501, -0.10059082031250001, 10.381212158203125
1520530964972374731, 0.04953479627547384, 0.02849582366384785, -0.002663161090079238, -0.9268725585937501, -0.09819580078125001, 10.394384765625
1520530964977389731, 0.04500742242233913, 0.03195793308095086, -0.0055926382891664005, -0.908909912109375, -0.13412109375, 10.36564453125
1520530964982405731, 0.043143209659283664, 0.03222424918995878, -0.009321063815277334, -0.8969348144531251, -0.140108642578125, 10.378817138671875
1520530964987421731, 0.03941478413317273, 0.03062635253591124, -0.008788431597261486, -0.9113049316406251, -0.16166381835937502, 10.394384765625
1520530964992437731, 0.035153726389045944, 0.02982740420888747, -0.011984224905356573, -0.890947265625, -0.17004638671875, 10.3895947265625
1520530964997452731, 0.03142530086293501, 0.025300030355752765, -0.012250541014364496, -0.889749755859375, -0.137713623046875, 10.399174804687501
1520530965002469731, 0.027963191445832, 0.020240024284602212, -0.011185276578332801, -0.861009521484375, -0.0814306640625, 10.431507568359375
1520530965007483731, 0.023968449810713145, 0.017576863194522972, -0.009054747706269411, -0.858614501953125, -0.01676513671875, 10.4183349609375
1520530965012498731, 0.023169501483689375, 0.011185276578332801, -0.0055926382891664005, -0.8155041503906251, 0.017962646484375, 10.4183349609375
1520530965017516731, 0.02077265650261806, 0.00825579937924564, -0.001331580545039619, -0.8155041503906251, 0.034727783203125, 10.46863037109375
1520530965022530731, 0.017044230976507126, 0.005060006071150553, 0.001597896654047543, -0.852626953125, 0.07903564453125, 10.532098388671876
1520530965027547731, 0.01651159875849128, 0.00346210941710301, 0.006391586616190172, -0.825084228515625, 0.087418212890625, 10.5141357421875
1520530965032563731, 0.014381069886427887, 0.002663161090079238, 0.011451592687340724, -0.8178991699218751, 0.0814306640625, 10.50216064453125
1520530965037577731, 0.01171790879634865, 0.0010652644360316954, 0.016245282649483356, -0.8478369140625001, 0.09340576171875001, 10.539283447265625
1520530965042593731, 0.01038632825130903, -0.0007989483270237715, 0.01944107595757844, -0.8622070312500001, 0.099393310546875, 10.53569091796875
1520530965047608731, 0.009853696033293183, -0.00346210941710301, 0.0234358175926973, -0.8777746582031251, 0.03113525390625, 10.509345703125
1520530965052625731, 0.009587379924285258, -0.004527373853134706, 0.026631610900792385, -0.906514892578125, 0.015567626953125, 10.494975585937501
1520530965057641731, 0.00692421883420602, -0.004527373853134706, 0.026098978682776535, -0.8813671875000001, 0.022752685546875002, 10.479407958984375
1520530965062655731, 0.008788431597261486, -0.005858954398174325, 0.027430559227816155, -0.918489990234375, 0.022752685546875002, 10.49258056640625
1520530965067673731, 0.009853696033293183, -0.006391586616190172, 0.02556634646476069, -0.890947265625, 0.0143701171875, 10.460247802734376
1520530965072688731, 0.008788431597261486, -0.008522115488253563, 0.027430559227816155, -0.86939208984375, 0.0047900390625, 10.438692626953125
1520530965077704731, 0.011984224905356573, -0.00692421883420602, 0.02716424311880823, -0.871787109375, 0.045505371093750004, 10.44947021484375
1520530965082719731, 0.014114753777419964, -0.004793689962142629, 0.02929477199087162, -0.833466796875, 0.027542724609375003, 10.44228515625
1520530965087736731, 0.017044230976507126, -0.003195793308095086, 0.03195793308095086, -0.8430468750000001, 0.05987548828125, 10.443482666015626
1520530965092751731, 0.02210423704765768, 0.0023968449810713144, 0.034354778062022175, -0.839454345703125, 0.085023193359375, 10.453062744140626
1520530965097766731, 0.026098978682776535, 0.009321063815277334, 0.03488741028003802, -0.8346643066406251, 0.08861572265625, 10.455457763671875
1520530965102783731, 0.0290284558818637, 0.012783173232380344, 0.037017939152101415, -0.8765771484375, 0.06586303710937501, 10.47821044921875
1520530965107798731, 0.03408846195301425, 0.013582121559404116, 0.039681100242180654, -0.852626953125, 0.07304809570312501, 10.46863037109375
1520530965112813731, 0.03755057137011726, 0.015446334322459582, 0.040480048569204424, -0.844244384765625, 0.0431103515625, 10.487790527343751
1520530965117829731, 0.04154531300523612, 0.015712650431467506, 0.03941478413317273, -0.86939208984375, 0.0431103515625, 10.47821044921875
1520530965122845731, 0.045540054640354974, 0.01464738599543581, 0.03994741635118858, -0.9077124023437501, -0.008382568359375, 10.491383056640625
1520530965127860731, 0.04980111238448176, 0.01731054708551505, 0.03888215191515688, -0.93166259765625, -0.010777587890625, 10.47821044921875
1520530965132877731, 0.05246427347456099, 0.02077265650261806, 0.03488741028003802, -0.9268725585937501, -0.050295410156250005, 10.441087646484375
1520530965137892731, 0.05432848623761646, 0.021837920938649755, 0.03142530086293501, -0.93884765625, -0.080233154296875, 10.44228515625
1520530965142908731, 0.0569916473276957, 0.021571604829641832, 0.02929477199087162, -0.9328601074218751, -0.09580078125000001, 10.40396484375
1520530965147923731, 0.06045375674479871, 0.021305288720633905, 0.026631610900792385, -0.8945397949218751, -0.154478759765625, 10.402767333984375
1520530965152940731, 0.06205165339884625, 0.022370553156665602, 0.025832662573768612, -0.890947265625, -0.18681152343750002, 10.390792236328126
1520530965157955731, 0.06311691783487795, 0.01997370817559429, 0.024501082028728992, -0.89334228515625, -0.188009033203125, 10.33450927734375
1520530965162969731, 0.06498113059793342, 0.016777914867499202, 0.02716424311880823, -0.8622070312500001, -0.16046630859375, 10.36324951171875
1520530965167986731, 0.0636495500528938, 0.01171790879634865, 0.02849582366384785, -0.83107177734375, -0.130528564453125, 10.423125
1520530965173002731, 0.061519021180830406, 0.006125270507182248, 0.02822950755483993, -0.839454345703125, -0.047900390625000004, 10.412347412109375
1520530965178018731, 0.0636495500528938, -0.001864212763055467, 0.03195793308095086, -0.79754150390625, -0.003592529296875, 10.436297607421876
1520530965183033731, 0.062317969507854176, -0.007989483270237714, 0.03675162304309349, -0.83107177734375, 0.034727783203125, 10.4566552734375
1520530965188050731, 0.05858954398174324, -0.013582121559404116, 0.042077945223251964, -0.81670166015625, 0.047900390625000004, 10.479407958984375
1520530965193065731, 0.058855860090751166, -0.01651159875849128, 0.04287689355027574, -0.8646020507812501, 0.041912841796875, 10.499765625
1520530965198079731, 0.0569916473276957, -0.020506340393610135, 0.04367584187729951, -0.849034423828125, 0.0143701171875, 10.480605468750001
1520530965203096731, 0.05672533121868778, -0.022370553156665602, 0.04367584187729951, -0.865799560546875, -0.00718505859375, 10.477012939453125
1520530965208112731, 0.0569916473276957, -0.023968449810713145, 0.04261057744126781, -0.887354736328125, -0.0335302734375, 10.49258056640625
1520530965213127731, 0.05539375067364816, -0.02689792700980031, 0.041278996896228194, -0.8382568359375, -0.029937744140625, 10.498568115234375
1520530965218143731, 0.05432848623761646, -0.02769687533682408, 0.03994741635118858, -0.83586181640625, -0.009580078125, 10.4470751953125
1520530965223159731, 0.056192699000671927, -0.02849582366384785, 0.04261057744126781, -0.8382568359375, -0.0047900390625, 10.473420410156251
1520530965228175731, 0.05539375067364816, -0.031158984753927088, 0.0402137324601965, -0.83107177734375, 0.027542724609375003, 10.450667724609376
1520530965233191731, 0.05486111845563231, -0.03488741028003802, 0.03941478413317273, -0.7723937988281251, 0.01916015625, 10.427915039062501
1520530965238206731, 0.0569916473276957, -0.03328951362599048, 0.03994741635118858, -0.8214916992187501, 0.0335302734375, 10.448272705078125
1520530965243222731, 0.05938849230876701, -0.031158984753927088, 0.03755057137011726, -0.8646020507812501, 0.013172607421875001, 10.4614453125
1520530965248237731, 0.06045375674479871, -0.024501082028728992, 0.03568635860706179, -0.8286767578125, 0.023950195312500002, 10.432705078125
1520530965253253731, 0.06045375674479871, -0.018908443739562592, 0.03328951362599048, -0.841849365234375, 0.003592529296875, 10.4470751953125
1520530965258269731, 0.06125270507182248, -0.016245282649483356, 0.02716424311880823, -0.858614501953125, -0.009580078125, 10.4758154296875
1520530965263284731, 0.06125270507182248, -0.012783173232380344, 0.0234358175926973, -0.8454418945312501, 0.013172607421875001, 10.50695068359375
1520530965268300731, 0.062317969507854176, -0.010652644360316953, 0.021305288720633905, -0.8370593261718751, 0.001197509765625, 10.51653076171875
1520530965273316731, 0.05992112452678287, -0.005326322180158476, 0.018109495412538822, -0.7807763671875, -0.034727783203125, 10.5141357421875
1520530965278333731, 0.06045375674479871, -0.004261057744126781, 0.018109495412538822, -0.741258544921875, -0.00718505859375, 10.508148193359375
1520530965283348731, 0.05832322787273532, -0.004527373853134706, 0.01864212763055467, -0.729283447265625, -0.010777587890625, 10.505753173828126
1520530965288363731, 0.05512743456464023, -0.0029294771990871623, 0.01864212763055467, -0.75443115234375, -0.0047900390625, 10.474617919921876
1520530965293380731, 0.05273058958356892, -0.0023968449810713144, 0.021305288720633905, -0.7364685058593751, 0.011975097656250001, 10.471025390625
1520530965298394731, 0.051665325147537224, 0.0, 0.02636529479178446, -0.67300048828125, -0.003592529296875, 10.517728271484376
1520530965303411731, 0.0513990090385293, 0.0010652644360316954, 0.029561088099879545, -0.690963134765625, 0.061072998046875, 10.480605468750001
1520530965308426731, 0.04846953183944214, 0.001864212763055467, 0.031158984753927088, -0.729283447265625, 0.058677978515625, 10.455457763671875
1520530965313440731, 0.045540054640354974, 0.004261057744126781, 0.033555829734998405, -0.7664062500000001, 0.051492919921875005, 10.469827880859375
1520530965318457731, 0.0458063707493629, 0.008788431597261486, 0.03675162304309349, -0.7664062500000001, 0.082628173828125, 10.484197998046875
1520530965323474731, 0.04367584187729951, 0.012516857123372421, 0.03728425526110934, -0.803529052734375, 0.061072998046875, 10.466235351562501
1520530965328489731, 0.040480048569204424, 0.017576863194522972, 0.03755057137011726, -0.8262817382812501, 0.0335302734375, 10.488988037109376
1520530965333504731, 0.03568635860706179, 0.019174759848570515, 0.03568635860706179, -0.8562194824218751, 0.0047900390625, 10.49737060546875
1520530965338521731, 0.033555829734998405, 0.02210423704765768, 0.03328951362599048, -0.8478369140625001, -0.003592529296875, 10.474617919921876
1520530965343536731, 0.03249056529896671, 0.025832662573768612, 0.031158984753927088, -0.829874267578125, 0.020357666015625, 10.536888427734375
1520530965348551731, 0.02929477199087162, 0.028762139772855775, 0.029561088099879545, -0.8190966796875, -0.02155517578125, 10.52132080078125
1520530965353567731, 0.023702133701705222, 0.029561088099879545, 0.030360036426903318, -0.81670166015625, -0.01676513671875, 10.490185546875
1520530965358584731, 0.02077265650261806, 0.027430559227816155, 0.02929477199087162, -0.7963439941406251, -0.026345214843750003, 10.534493408203126
1520530965363598731, 0.01651159875849128, 0.02689792700980031, 0.029561088099879545, -0.79275146484375, -0.020357666015625, 10.511740722656251
1520530965368614731, 0.015712650431467506, 0.025300030355752765, 0.030892668644919165, -0.805924072265625, 0.01676513671875, 10.50216064453125
1520530965373630731, 0.01171790879634865, 0.02769687533682408, 0.02929477199087162, -0.8214916992187501, 0.011975097656250001, 10.486593017578125
1520530965378646731, 0.006657902725198096, 0.02849582366384785, 0.03142530086293501, -0.83107177734375, 0.032332763671875, 10.479407958984375
1520530965383661731, 0.006391586616190172, 0.029561088099879545, 0.03142530086293501, -0.810714111328125, 0.0622705078125, 10.474617919921876
1520530965388677731, 0.005858954398174325, 0.03142530086293501, 0.03302319751698256, -0.8071215820312501, 0.06945556640625, 10.503358154296876
1520530965393693731, 0.005060006071150553, 0.03302319751698256, 0.03728425526110934, -0.803529052734375, 0.07304809570312501, 10.518925781250001
1520530965398708731, 0.0005326322180158477, 0.03249056529896671, 0.04074636467821235, -0.83586181640625, 0.080233154296875, 10.532098388671876
1520530965403724731, 0.001331580545039619, 0.03195793308095086, 0.04287689355027574, -0.827479248046875, 0.099393310546875, 10.520123291015626
1520530965408740731, -0.00026631610900792384, 0.030892668644919165, 0.04500742242233913, -0.8454418945312501, 0.09580078125000001, 10.526110839843751
1520530965413755731, 0.0007989483270237715, 0.02849582366384785, 0.048203215730434214, -0.85981201171875, 0.047900390625000004, 10.509345703125
1520530965418772731, 0.001597896654047543, 0.02716424311880823, 0.04793689962142629, -0.8286767578125, 0.0335302734375, 10.524913330078126
1520530965423788731, 0.0, 0.023169501483689375, 0.04713795129440252, -0.858614501953125, 0.015567626953125, 10.500963134765625
1520530965428803731, -0.00026631610900792384, 0.01944107595757844, 0.0468716351853946, -0.880169677734375, -0.01916015625, 10.51653076171875
1520530965433818731, 0.0010652644360316954, 0.012250541014364496, 0.045540054640354974, -0.8514294433593751, -0.051492919921875005, 10.498568115234375
1520530965438835731, 0.002663161090079238, 0.005326322180158476, 0.04607268685837083, -0.880169677734375, -0.051492919921875005, 10.4614453125
1520530965443851731, 0.004793689962142629, -0.0007989483270237715, 0.046605319076386674, -0.920885009765625, -0.051492919921875005, 10.479407958984375
1520530965448865731, 0.007190534943213944, -0.0055926382891664005, 0.0468716351853946, -0.920885009765625, -0.04071533203125, 10.44947021484375
1520530965453882731, 0.011984224905356573, -0.010652644360316953, 0.047404267403410444, -0.889749755859375, -0.028740234375, 10.42552001953125
1520530965458897731, 0.014913702104443736, -0.013049489341388268, 0.050067428493489684, -0.9029223632812501, -0.0143701171875, 10.402767333984375
1520530965463912731, 0.01997370817559429, -0.017843179303530896, 0.051665325147537224, -0.910107421875, -0.008382568359375, 10.38719970703125
1520530965468929731, 0.02556634646476069, -0.019174759848570515, 0.053529537910592694, -0.920885009765625, -0.0059875488281250005, 10.448272705078125
1520530965473945731, 0.0290284558818637, -0.022636869265673525, 0.05539375067364816, -0.940045166015625, -0.01916015625, 10.435100097656251
1520530965478959731, 0.03648530693408557, -0.02423476591972107, 0.05486111845563231, -0.9795629882812501, -0.023950195312500002, 10.423125
1520530965483975731, 0.041278996896228194, -0.023169501483689375, 0.05326322180158477, -0.9975256347656251, -0.027542724609375003, 10.4374951171875
1520530965488992731, 0.046605319076386674, -0.023702133701705222, 0.05246427347456099, -0.9568103027343751, -0.05748046875, 10.448272705078125
1520530965494007731, 0.053529537910592694, -0.01944107595757844, 0.04793689962142629, -0.9867480468750001, -0.0431103515625, 10.429112548828126
1520530965499022731, 0.06018744063579079, -0.019174759848570515, 0.04234426133225989, -0.9843530273437501, -0.080233154296875, 10.4566552734375
1520530965504039731, 0.06498113059793342, -0.017576863194522972, 0.03755057137011726, -0.9795629882812501, -0.0814306640625, 10.480605468750001
1520530965509053731, 0.0692421883420602, -0.01864212763055467, 0.032756881407974635, -0.978365478515625, -0.116158447265625, 10.472222900390625
1520530965514069731, 0.07616640717626622, -0.020240024284602212, 0.030360036426903318, -0.9580078125, -0.08861572265625, 10.45426025390625
1520530965519085731, 0.07962851659336923, -0.023169501483689375, 0.02556634646476069, -0.9532177734375, -0.067060546875, 10.493778076171875
1520530965524102731, 0.0849548387735277, -0.02822950755483993, 0.023169501483689375, -0.89813232421875, -0.027542724609375003, 10.499765625
1520530965529117731, 0.08788431597261487, -0.031158984753927088, 0.023169501483689375, -0.9160949707031251, 0.003592529296875, 10.50695068359375
1520530965534133731, 0.09134642538971788, -0.035153726389045944, 0.022370553156665602, -0.8837622070312501, 0.0383203125, 10.4853955078125
1520530965539149731, 0.09427590258880504, -0.0402137324601965, 0.023702133701705222, -0.889749755859375, 0.058677978515625, 10.4758154296875
1520530965544166731, 0.0937432703707892, -0.04234426133225989, 0.026098978682776535, -0.8574169921875, 0.086220703125, 10.4614453125
1520530965549180731, 0.09534116702483673, -0.04713795129440252, 0.02689792700980031, -0.8765771484375, 0.07304809570312501, 10.469827880859375
1520530965554196731, 0.10040117309598728, -0.05273058958356892, 0.02849582366384785, -0.868194580078125, 0.106578369140625, 10.484197998046875
1520530965559212731, 0.10253170196805068, -0.05725796343670363, 0.029561088099879545, -0.89813232421875, 0.08382568359375, 10.460247802734376
1520530965564226731, 0.10412959862209822, -0.05992112452678287, 0.031158984753927088, -0.8957373046875, 0.029937744140625, 10.462642822265625
1520530965569242731, 0.108390656366225, -0.06764429168801266, 0.03249056529896671, -0.9220825195312501, 0.020357666015625, 10.44468017578125
1520530965574258731, 0.10998855302027255, -0.07190534943213944, 0.03062635253591124, -0.91729248046875, 0.0, 10.4566552734375
1520530965579274731, 0.10972223691126462, -0.07297061386817114, 0.02929477199087162, -0.9268725585937501, -0.0047900390625, 10.481802978515626
1520530965584290731, 0.11105381745630424, -0.07137271721412358, 0.025033714246744842, -0.9627978515625001, -0.009580078125, 10.472222900390625
1520530965589305731, 0.111852765783328, -0.06844324001503643, 0.021571604829641832, -0.9412426757812501, -0.015567626953125, 10.465037841796876
1520530965594320731, 0.10998855302027255, -0.06897587223305228, 0.016245282649483356, -0.963995361328125, -0.015567626953125, 10.48300048828125
1520530965599337731, 0.1094559208022567, -0.06657902725198096, 0.012783173232380344, -0.959205322265625, -0.02155517578125, 10.503358154296876
1520530965604353731, 0.10972223691126462, -0.06018744063579079, 0.01038632825130903, -0.959205322265625, -0.022752685546875002, 10.480605468750001
1520530965609368731, 0.1038632825130903, -0.05912217619975909, 0.0055926382891664005, -0.95561279296875, 0.009580078125, 10.4374951171875
1520530965614383731, 0.09986854087797144, -0.056192699000671927, 0.001597896654047543, -0.890947265625, 0.0143701171875, 10.433902587890625
1520530965619400731, 0.0972053797878922, -0.05273058958356892, 0.0005326322180158477, -0.8957373046875, 0.034727783203125, 10.429112548828126
1520530965624416731, 0.09081379317170203, -0.04926848016646591, -0.001864212763055467, -0.9304650878906251, 0.034727783203125, 10.436297607421876
1520530965629431731, 0.08415589044650393, -0.05060006071150553, -0.003994741635118857, -0.89334228515625, 0.044307861328125, 10.473420410156251
1520530965634446731, 0.08069378102940092, -0.05033374460249761, -0.006125270507182248, -0.89334228515625, 0.056282958984375006, 10.488988037109376
1520530965639463731, 0.07403587830420283, -0.046605319076386674, -0.009054747706269411, -0.861009521484375, 0.076640625, 10.46384033203125
1520530965644478731, 0.06764429168801266, -0.048203215730434214, -0.012250541014364496, -0.8777746582031251, 0.08861572265625, 10.467432861328126
1520530965649495731, 0.06045375674479871, -0.04287689355027574, -0.01597896654047543, -0.8813671875000001, 0.09340576171875001, 10.453062744140626
1520530965654508731, 0.05752427954571155, -0.03808320358813311, -0.01864212763055467, -0.8382568359375, 0.101788330078125, 10.443482666015626
1520530965659525731, 0.0513990090385293, -0.03675162304309349, -0.020240024284602212, -0.7831713867187501, 0.118553466796875, 10.44468017578125
1520530965664540731, 0.044741106313331204, -0.034354778062022175, -0.023702133701705222, -0.784368896484375, 0.12693603515625002, 10.505753173828126
1520530965669558731, 0.042077945223251964, -0.03142530086293501, -0.025300030355752765, -0.75922119140625, 0.1484912109375, 10.527308349609376
1520530965674572731, 0.03488741028003802, -0.027963191445832, -0.0234358175926973, -0.75443115234375, 0.162861328125, 10.5524560546875
1520530965679587731, 0.02849582366384785, -0.025300030355752765, -0.0234358175926973, -0.662222900390625, 0.154478759765625, 10.551258544921875
1520530965684603731, 0.022370553156665602, -0.027430559227816155, -0.01997370817559429, -0.6358776855468751, 0.18082397460937502, 10.520123291015626
1520530965689619731, 0.018908443739562592, -0.028762139772855775, -0.012783173232380344, -0.622705078125, 0.18082397460937502, 10.46384033203125
1520530965694634731, 0.013315805450396193, -0.031691616971942935, -0.0055926382891664005, -0.63228515625, 0.192799072265625, 10.465037841796876
1520530965699652731, 0.011451592687340724, -0.03648530693408557, 0.0, -0.643062744140625, 0.19878662109375, 10.473420410156251
1520530965704666731, 0.005858954398174325, -0.038615835806148954, 0.005326322180158476, -0.6741979980468751, 0.21674926757812502, 10.44947021484375
1520530965709682731, 0.002663161090079238, -0.037816887479125184, 0.008788431597261486, -0.67300048828125, 0.17603393554687502, 10.453062744140626
1520530965714697731, 0.00026631610900792384, -0.03408846195301425, 0.01171790879634865, -0.681383056640625, 0.140108642578125, 10.45426025390625
1520530965719713731, -0.003728425526110934, -0.027963191445832, 0.011984224905356573, -0.731678466796875, 0.135318603515625, 10.471025390625
1520530965724729731, -0.0023968449810713144, -0.02077265650261806, 0.012783173232380344, -0.7340734863281251, 0.14130615234375002, 10.441087646484375
1520530965729745731, -0.0023968449810713144, -0.012250541014364496, 0.009587379924285258, -0.73527099609375, 0.12214599609375, 10.429112548828126
1520530965734761731, -0.0021305288720633907, -0.005326322180158476, 0.005858954398174325, -0.7580236816406251, 0.130528564453125, 10.406359863281251
1520530965739777731, -0.002663161090079238, 0.0021305288720633907, 0.003728425526110934, -0.71611083984375, 0.087418212890625, 10.407557373046876
1520530965744792731, -0.001597896654047543, 0.008522115488253563, 0.0007989483270237715, -0.662222900390625, 0.087418212890625, 10.356064453125
1520530965749807731, -0.0007989483270237715, 0.013315805450396193, -0.00026631610900792384, -0.6765930175781251, 0.10298583984375001, 10.3704345703125
1520530965754823731, -0.0005326322180158477, 0.01731054708551505, -0.00346210941710301, -0.7125183105468751, 0.09340576171875001, 10.37282958984375
1520530965759840731, 0.0010652644360316954, 0.018375811521546746, -0.006391586616190172, -0.70174072265625, 0.08382568359375, 10.36324951171875
1520530965764854731, 0.001597896654047543, 0.021571604829641832, -0.006391586616190172, -0.6825805664062501, 0.09101074218750001, 10.399174804687501
1520530965769870731, 0.003195793308095086, 0.026098978682776535, -0.00346210941710301, -0.662222900390625, 0.128133544921875, 10.391989746093751
1520530965774887731, 0.003195793308095086, 0.028762139772855775, -0.004261057744126781, -0.683778076171875, 0.108973388671875, 10.395582275390625
1520530965779902731, 0.005326322180158476, 0.030093720317895395, -0.0055926382891664005, -0.7065307617187501, 0.09819580078125001, 10.395582275390625
1520530965784918731, 0.005858954398174325, 0.030093720317895395, -0.006391586616190172, -0.707728271484375, 0.087418212890625, 10.3800146484375
1520530965789934731, 0.006125270507182248, 0.03222424918995878, -0.004261057744126781, -0.689765625, 0.07424560546875, 10.423125
1520530965794948731, 0.005326322180158476, 0.030093720317895395, -0.003728425526110934, -0.6658154296875001, 0.09101074218750001, 10.451865234375001
1520530965799965731, 0.00825579937924564, 0.026631610900792385, -0.003728425526110934, -0.6825805664062501, 0.10538085937500001, 10.426717529296875
1520530965804980731, 0.008788431597261486, 0.02476739813773692, -0.005326322180158476, -0.6658154296875001, 0.06825805664062501, 10.400372314453126
1520530965809996731, 0.008522115488253563, 0.025033714246744842, -0.005060006071150553, -0.700543212890625, 0.089813232421875, 10.362052001953126
1520530965815010731, 0.010652644360316953, 0.02290318537468145, -0.004261057744126781, -0.6933581542968751, 0.10298583984375001, 10.371632080078125
1520530965820028731, 0.00825579937924564, 0.023169501483689375, -0.0029294771990871623, -0.6562353515625, 0.09819580078125001, 10.37761962890625
1520530965825044731, 0.010918960469324878, 0.02716424311880823, -0.001864212763055467, -0.6741979980468751, 0.128133544921875, 10.375224609375001
1520530965830059731, 0.010918960469324878, 0.027963191445832, 0.005060006071150553, -0.705333251953125, 0.1389111328125, 10.412347412109375
1520530965835075731, 0.013582121559404116, 0.03062635253591124, 0.007456851052221868, -0.7137158203125, 0.13412109375, 10.427915039062501
1520530965840091731, 0.014114753777419964, 0.032756881407974635, 0.011185276578332801, -0.67779052734375, 0.17603393554687502, 10.359656982421875
1520530965845105731, 0.014381069886427887, 0.03382214584400633, 0.014381069886427887, -0.6658154296875001, 0.16166381835937502, 10.37282958984375
1520530965850123731, 0.017576863194522972, 0.03488741028003802, 0.019174759848570515, -0.6753955078125, 0.143701171875, 10.423125
1520530965855137731, 0.01944107595757844, 0.03542004249805387, 0.023702133701705222, -0.683778076171875, 0.130528564453125, 10.38719970703125
1520530965860154731, 0.02476739813773692, 0.03328951362599048, 0.02556634646476069, -0.70892578125, 0.12693603515625002, 10.399174804687501
1520530965865168731, 0.025033714246744842, 0.03142530086293501, 0.02929477199087162, -0.7041357421875001, 0.09101074218750001, 10.369237060546876
1520530965870185731, 0.02689792700980031, 0.03142530086293501, 0.03062635253591124, -0.7580236816406251, 0.085023193359375, 10.393187255859376
1520530965875201731, 0.02929477199087162, 0.03249056529896671, 0.031158984753927088, -0.7424560546875001, 0.06825805664062501, 10.38240966796875
1520530965880217731, 0.030892668644919165, 0.031158984753927088, 0.030892668644919165, -0.765208740234375, 0.03113525390625, 10.394384765625
1520530965885232731, 0.031158984753927088, 0.03195793308095086, 0.03142530086293501, -0.7855664062500001, 0.056282958984375006, 10.4087548828125
1520530965890247731, 0.03302319751698256, 0.031158984753927088, 0.031158984753927088, -0.7807763671875, 0.049097900390625004, 10.390792236328126
1520530965895262731, 0.03328951362599048, 0.02822950755483993, 0.032756881407974635, -0.781973876953125, 0.099393310546875, 10.374027099609375
1520530965900279731, 0.0346210941710301, 0.028762139772855775, 0.03328951362599048, -0.805924072265625, 0.10059082031250001, 10.364447021484375
1520530965905295731, 0.03542004249805387, 0.027963191445832, 0.03648530693408557, -0.8562194824218751, 0.0718505859375, 10.335706787109375
1520530965910311731, 0.035153726389045944, 0.02689792700980031, 0.03675162304309349, -0.861009521484375, 0.050295410156250005, 10.326126708984376
1520530965915325731, 0.036218990825077645, 0.025300030355752765, 0.03728425526110934, -0.87418212890625, 0.061072998046875, 10.359656982421875
1520530965920342731, 0.03941478413317273, 0.023169501483689375, 0.037017939152101415, -0.863404541015625, 0.051492919921875005, 10.353669433593751
1520530965925358731, 0.041278996896228194, 0.021305288720633905, 0.03994741635118858, -0.918489990234375, 0.037122802734375, 10.32492919921875
1520530965930374731, 0.04154531300523612, 0.01864212763055467, 0.03994741635118858, -0.8945397949218751, -0.032332763671875, 10.3129541015625
1520530965935389731, 0.042077945223251964, 0.016777914867499202, 0.039681100242180654, -0.9675878906250001, -0.050295410156250005, 10.353669433593751
1520530965940405731, 0.044741106313331204, 0.013582121559404116, 0.03808320358813311, -1.025068359375, -0.049097900390625004, 10.402767333984375
1520530965945420731, 0.04713795129440252, 0.011984224905356573, 0.032756881407974635, -1.0454260253906251, -0.096998291015625, 10.397977294921876
1520530965950437731, 0.04953479627547384, 0.007723167161229791, 0.027430559227816155, -1.0921289062500001, -0.111368408203125, 10.433902587890625
1520530965955452731, 0.05273058958356892, 0.006657902725198096, 0.017576863194522972, -1.120869140625, -0.130528564453125, 10.46863037109375
1520530965960468731, 0.05033374460249761, 0.003994741635118857, 0.007456851052221868, -1.12805419921875, -0.13412109375, 10.486593017578125
1520530965965482731, 0.05219795736555307, 0.00026631610900792384, 0.0, -1.1220666503906251, -0.168848876953125, 10.473420410156251
1520530965970499731, 0.05486111845563231, -0.005326322180158476, -0.009587379924285258, -1.1819421386718751, -0.1580712890625, 10.524913330078126
1520530965975515731, 0.05539375067364816, -0.015712650431467506, -0.01651159875849128, -1.155596923828125, -0.159268798828125, 10.51653076171875
1520530965980530731, 0.05832322787273532, -0.026631610900792385, -0.020240024284602212, -1.1304492187500002, -0.11017089843750001, 10.5141357421875
1520530965985546731, 0.06285060172587002, -0.03382214584400633, -0.025033714246744842, -1.134041748046875, -0.08861572265625, 10.522518310546875
1520530965990561731, 0.06711165946999681, -0.04181162911424404, -0.02556634646476069, -1.131646728515625, -0.05987548828125, 10.509345703125
1520530965995577731, 0.07004113666908397, -0.05299690569257685, -0.026098978682776535, -1.086141357421875, -0.028740234375, 10.571616210937501
1520530966000593731, 0.07616640717626622, -0.06391586616190172, -0.02689792700980031, -1.06578369140625, -0.00239501953125, 10.568023681640625
1520530966005608731, 0.08096009713840885, -0.07510114274023452, -0.025033714246744842, -1.04183349609375, 0.011975097656250001, 10.596763916015625
1520530966010625731, 0.08628641931856733, -0.08522115488253562, -0.02077265650261806, -1.02746337890625, 0.050295410156250005, 10.589578857421875
1520530966015638731, 0.0916127414987258, -0.09614011535186051, -0.017576863194522972, -1.028660888671875, 0.085023193359375, 10.589578857421875
1520530966020657731, 0.09853696033293181, -0.1059938113851537, -0.01384843766841204, -1.021475830078125, 0.09819580078125001, 10.579998779296876
1520530966025671731, 0.10173275364102691, -0.11211908189233594, -0.011451592687340724, -0.999920654296875, 0.13412109375, 10.591973876953126
1520530966030688731, 0.11025486912928047, -0.11451592687340725, -0.006125270507182248, -0.9580078125, 0.13412109375, 10.553653564453125
1520530966035703731, 0.11558119130943895, -0.11664645574547064, -0.0005326322180158477, -0.9627978515625001, 0.10777587890625001, 10.517728271484376
1520530966040719731, 0.12197277792562912, -0.1161138235274548, 0.005858954398174325, -0.9436376953125001, 0.12334350585937501, 10.5237158203125
1520530966045734731, 0.12303804236166081, -0.11558119130943895, 0.012783173232380344, -0.9915380859375, 0.13412109375, 10.50695068359375
1520530966050750731, 0.12916331286884306, -0.111852765783328, 0.01651159875849128, -1.00830322265625, 0.162861328125, 10.47821044921875
1520530966055766731, 0.132891738394954, -0.10812434025721708, 0.016245282649483356, -1.02267333984375, 0.1149609375, 10.429112548828126
1520530966060781731, 0.13688648003007287, -0.10146643753201898, 0.019174759848570515, -1.0322534179687501, 0.053887939453125006, 10.448272705078125
1520530966065796731, 0.1419464861012234, -0.0972053797878922, 0.023968449810713145, -1.055006103515625, 0.001197509765625, 10.467432861328126
1520530966070814731, 0.14514227940931848, -0.0916127414987258, 0.025033714246744842, -1.07296875, -0.03113525390625, 10.498568115234375
1520530966075829731, 0.14780544049939773, -0.08575378710055148, 0.02077265650261806, -1.12326416015625, -0.092208251953125, 10.5141357421875
1520530966080845731, 0.14887070493542942, -0.07882956826634546, 0.015446334322459582, -1.1567944335937501, -0.11017089843750001, 10.528505859375
1520530966085860731, 0.1520664982435245, -0.07350324608618698, 0.010120012142301106, -1.1436218261718751, -0.12693603515625002, 10.539283447265625
1520530966090876731, 0.1510012338074928, -0.06684534336098888, 0.00346210941710301, -1.13284423828125, -0.13172607421875002, 10.59556640625
1520530966095891731, 0.14993596937146111, -0.06045375674479871, -0.003994741635118857, -1.12805419921875, -0.15208374023437501, 10.607541503906251
1520530966100908731, 0.15126754991650074, -0.053529537910592694, -0.011185276578332801, -1.16637451171875, -0.128133544921875, 10.611134033203125
1520530966105923731, 0.14966965326245318, -0.047404267403410444, -0.016777914867499202, -1.1651770019531251, -0.142503662109375, 10.57401123046875
1520530966110939731, 0.14460964719130265, -0.037816887479125184, -0.024501082028728992, -1.153201904296875, -0.11017089843750001, 10.61233154296875
1520530966115953731, 0.14354438275527096, -0.029561088099879545, -0.02929477199087162, -1.150806884765625, -0.096998291015625, 10.579998779296876
1520530966120971731, 0.1419464861012234, -0.02210423704765768, -0.034354778062022175, -1.159189453125, -0.080233154296875, 10.644664306640626
1520530966125985731, 0.13954964112015208, -0.016245282649483356, -0.03675162304309349, -1.090931396484375, -0.04071533203125, 10.638676757812501
1520530966131001731, 0.13262542228594607, -0.012783173232380344, -0.0391484680241648, -1.06099365234375, -0.013172607421875001, 10.644664306640626
1520530966136017731, 0.12889699675983513, -0.010652644360316953, -0.037017939152101415, -1.0490185546875002, 0.03592529296875, 10.692564697265626
1520530966141033731, 0.12357067457967666, -0.012250541014364496, -0.03568635860706179, -1.0346484375, 0.052690429687500005, 10.70813232421875
1520530966146047731, 0.11797803629051026, -0.011984224905356573, -0.03249056529896671, -1.044228515625, 0.086220703125, 10.7536376953125
1520530966151064731, 0.11318434632836763, -0.014114753777419964, -0.02716424311880823, -0.9819580078125001, 0.124541015625, 10.783575439453125
1520530966156080731, 0.10705907582118539, -0.018375811521546746, -0.017576863194522972, -1.026265869140625, 0.17483642578125, 10.8590185546875
1520530966161096731, 0.10199906975003482, -0.02290318537468145, -0.005060006071150553, -1.00351318359375, 0.19639160156250002, 10.908116455078126
1520530966166110731, 0.0937432703707892, -0.02556634646476069, 0.01038632825130903, -0.99872314453125, 0.19639160156250002, 10.90212890625
1520530966171131731, 0.08681905153658317, -0.02982740420888747, 0.025832662573768612, -1.0011181640625, 0.233514404296875, 10.90452392578125
1520530966176144731, 0.08096009713840885, -0.03755057137011726, 0.03994741635118858, -0.925675048828125, 0.188009033203125, 10.921289062500001
1520530966181158731, 0.07350324608618698, -0.04633900296737875, 0.05858954398174324, -0.97477294921875, 0.18920654296875, 10.997929687500001
1520530966186175731, 0.06737797557900473, -0.053529537910592694, 0.07483482663122659, -1.026265869140625, 0.209564208984375, 11.011102294921876
1520530966191190731, 0.06285060172587002, -0.061519021180830406, 0.09028116095368618, -1.0681787109375, 0.209564208984375, 11.012299804687501
1520530966196205731, 0.05379585401960062, -0.07030745277809189, 0.10199906975003482, -1.069376220703125, 0.18681152343750002, 11.035052490234376
1520530966201222731, 0.04527373853134705, -0.07483482663122659, 0.11025486912928047, -1.1220666503906251, 0.20118164062500002, 11.086545410156251
1520530966206238731, 0.03994741635118858, -0.07962851659336923, 0.11797803629051026, -1.1543994140625, 0.19878662109375, 11.084150390625
1520530966211252731, 0.033555829734998405, -0.08362325822848808, 0.12010856516257365, -1.174757080078125, 0.18082397460937502, 11.099718017578125
1520530966216267731, 0.027430559227816155, -0.08681905153658317, 0.1227717262526529, -1.22625, 0.147293701171875, 11.181148681640625
1520530966221284731, 0.019174759848570515, -0.08708536764559109, 0.12650015177876384, -1.25738525390625, 0.162861328125, 11.205098876953125
1520530966226300731, 0.015446334322459582, -0.07962851659336923, 0.13049489341388268, -1.32444580078125, 0.15328125, 11.183543701171876
1520530966231316731, 0.01038632825130903, -0.07563377495825037, 0.13156015784991437, -1.407073974609375, 0.16645385742187502, 11.20150634765625
1520530966236331731, 0.003728425526110934, -0.0692421883420602, 0.12969594508685892, -1.43701171875, 0.1580712890625, 11.2230615234375
1520530966241347731, -0.001597896654047543, -0.06498113059793342, 0.1283643645418193, -1.4226416015625, 0.14609619140625002, 11.220666503906251
1520530966246362731, -0.007723167161229791, -0.061519021180830406, 0.1272991001057876, -1.447789306640625, 0.12094848632812501, 11.256591796875
1520530966251379731, -0.014114753777419964, -0.058855860090751166, 0.12170646181662119, -1.488504638671875, 0.11256591796875001, 11.26377685546875
1520530966256394731, -0.018375811521546746, -0.06205165339884625, 0.1195759329445578, -1.507664794921875, 0.052690429687500005, 11.315269775390625
1520530966261410731, -0.0234358175926973, -0.06178533728983833, 0.11238539800134385, -1.548380126953125, 0.023950195312500002, 11.296109619140626
1520530966266424731, -0.03195793308095086, -0.06205165339884625, 0.10519486305812992, -1.5280224609375002, 0.051492919921875005, 11.28533203125
1520530966271442731, -0.03808320358813311, -0.06285060172587002, 0.09667274756987636, -1.5411950683593751, 0.111368408203125, 11.241024169921875
1520530966276457731, -0.043143209659283664, -0.05912217619975909, 0.08628641931856733, -1.565145263671875, 0.135318603515625, 11.237431640625001
1520530966281473731, -0.04793689962142629, -0.05379585401960062, 0.07989483270237716, -1.565145263671875, 0.14130615234375002, 11.224259033203126
1520530966286489731, -0.05326322180158477, -0.048203215730434214, 0.07163903332313151, -1.581910400390625, 0.1580712890625, 11.245814208984376
1520530966291504731, -0.060720072853806636, -0.04500742242233913, 0.0636495500528938, -1.57831787109375, 0.19160156250000002, 11.217073974609375
1520530966296519731, -0.06471481448892549, -0.04234426133225989, 0.05672533121868778, -1.5627502441406251, 0.233514404296875, 11.18953125
1520530966301536731, -0.07110640110511567, -0.037017939152101415, 0.05299690569257685, -1.60226806640625, 0.258662109375, 11.252999267578126
1520530966306551731, -0.07936220048436131, -0.03142530086293501, 0.05459480234662439, -1.550775146484375, 0.27063720703125, 11.26856689453125
1520530966311567731, -0.08468852266451977, -0.02929477199087162, 0.050866376820513454, -1.57352783203125, 0.29937744140625, 11.26377685546875
1520530966316582731, -0.08788431597261487, -0.02556634646476069, 0.05033374460249761, -1.56394775390625, 0.32213012695312504, 11.314072265625
1520530966321598731, -0.09214537371674165, -0.021837920938649755, 0.05273058958356892, -1.510059814453125, 0.33769775390625, 11.293714599609375
1520530966326614731, -0.10306433418606653, -0.01997370817559429, 0.05566006678265608, -1.53520751953125, 0.34129028320312504, 11.296109619140626
1520530966331629731, -0.11132013356531216, -0.01997370817559429, 0.055926382891664, -1.531614990234375, 0.3448828125, 11.348800048828126
1520530966336646731, -0.1161138235274548, -0.021305288720633905, 0.06045375674479871, -1.500479736328125, 0.29937744140625, 11.33083740234375
1520530966341661731, -0.12596751956074798, -0.02636529479178446, 0.06311691783487795, -1.483714599609375, 0.26345214843750003, 11.290122070312501
1520530966346676731, -0.1352885833760253, -0.02982740420888747, 0.06551376281594927, -1.5088623046875, 0.23710693359375, 11.2613818359375
1520530966351693731, -0.14700649217237396, -0.03328951362599048, 0.06950850445106813, -1.542392578125, 0.1676513671875, 11.25419677734375
1520530966356709731, -0.15765913653269092, -0.03888215191515688, 0.07190534943213944, -1.6334033203125, 0.111368408203125, 11.2422216796875
1520530966361724731, -0.16618125202094447, -0.042077945223251964, 0.07217166554114736, -1.6645385742187502, 0.032332763671875, 11.230246582031251
1520530966366739731, -0.1776328447082852, -0.0458063707493629, 0.07190534943213944, -1.70525390625, 0.0, 11.178753662109376
1520530966371755731, -0.18935075350463385, -0.04420847409531536, 0.07030745277809189, -1.7711169433593752, 0.008382568359375, 11.195518798828125
1520530966376771731, -0.1989381334289191, -0.045540054640354974, 0.06897587223305228, -1.77949951171875, -0.03592529296875, 11.135643310546875
1520530966381785731, -0.20612866837213306, -0.0458063707493629, 0.06764429168801266, -1.7974621582031252, -0.046702880859375004, 11.09612548828125
1520530966386802731, -0.21598236440542623, -0.0468716351853946, 0.0681769239060285, -1.8441650390625002, -0.07424560546875, 11.057805175781251
1520530966391818731, -0.22317289934864018, -0.04793689962142629, 0.06578007892495719, -1.85853515625, -0.11017089843750001, 11.02427490234375
1520530966396833731, -0.23276027927292545, -0.050067428493489684, 0.06444849837991756, -1.8345849609375, -0.11735595703125, 10.970386962890625
1520530966401850731, -0.24341292363324238, -0.05486111845563231, 0.0625842856168621, -1.868115234375, -0.11017089843750001, 10.982362060546876
1520530966406865731, -0.2545982002115752, -0.05645901510967986, 0.05672533121868778, -1.8836828613281251, -0.104183349609375, 10.95721435546875
1520530966411881731, -0.2617887351547891, -0.053529537910592694, 0.05379585401960062, -1.8609301757812502, -0.12693603515625002, 10.9835595703125
1520530966416896731, -0.2689792700980031, -0.0569916473276957, 0.053529537910592694, -1.85614013671875, -0.192799072265625, 10.934461669921875
1520530966421912731, -0.2804308627853438, -0.05832322787273532, 0.0513990090385293, -1.864522705078125, -0.209564208984375, 10.914104003906251
1520530966426929731, -0.2881540299465736, -0.053529537910592694, 0.050067428493489684, -1.8992504882812502, -0.20357666015625, 10.878178710937501
1520530966431944731, -0.29401298434474793, -0.05246427347456099, 0.0513990090385293, -1.931583251953125, -0.22513183593750002, 10.88296875
1520530966436959731, -0.3022687837239936, -0.050866376820513454, 0.05379585401960062, -1.9507434082031252, -0.22513183593750002, 10.881771240234375
1520530966441975731, -0.31238879586629464, -0.0468716351853946, 0.055926382891664, -1.96152099609375, -0.250279541015625, 10.896141357421875
1520530966446990731, -0.3198456469185165, -0.04420847409531536, 0.05965480841777494, -1.9351757812500001, -0.307760009765625, 10.911708984375
1520530966452007731, -0.3259709174256988, -0.04287689355027574, 0.061519021180830406, -1.9303857421875001, -0.31255004882812504, 10.936856689453126
1520530966457023731, -0.33342776847792066, -0.03941478413317273, 0.06524744670694134, -1.936373291015625, -0.34129028320312504, 10.872191162109376
1520530966462038731, -0.3406183034211346, -0.0402137324601965, 0.06737797557900473, -1.92799072265625, -0.367635498046875, 10.878178710937501
1520530966467053731, -0.3454119933832772, -0.04154531300523612, 0.0681769239060285, -1.9136206054687501, -0.37122802734375004, 10.825488281250001
1520530966472068731, -0.35047199945442775, -0.0458063707493629, 0.07190534943213944, -1.924398193359375, -0.3496728515625, 10.817105712890626
1520530966477084731, -0.349673051127404, -0.05219795736555307, 0.07163903332313151, -1.9555334472656252, -0.37362304687500003, 10.847043457031251
1520530966482101731, -0.34993936723641195, -0.05832322787273532, 0.0727042977591632, -1.9339782714843752, -0.358055419921875, 10.833870849609376
1520530966487117731, -0.35127094778145157, -0.06285060172587002, 0.07536745884924245, -1.89446044921875, -0.360450439453125, 10.82788330078125
1520530966492132731, -0.3488741028003802, -0.06551376281594927, 0.07803061993932169, -1.8729052734375, -0.384400634765625, 10.817105712890626
1520530966497147731, -0.3459446256012931, -0.06604639503396512, 0.08548747099154355, -1.898052978515625, -0.41314086914062503, 10.772797851562501
1520530966502164731, -0.34328146451121383, -0.06950850445106813, 0.09347695426178126, -1.8788928222656252, -0.405955810546875, 10.783575439453125
1520530966507179731, -0.3395530389851029, -0.0737695621951949, 0.10333065029507445, -1.842967529296875, -0.439486083984375, 10.74884765625
1520530966512195731, -0.3328951362599048, -0.07563377495825037, 0.11211908189233594, -1.8058447265625002, -0.45385620117187503, 10.766810302734376
1520530966517211731, -0.32810144629776217, -0.07856325215733753, 0.12117382959860534, -1.81781982421875, -0.44786865234375, 10.764415283203126
1520530966522226731, -0.3201119630275244, -0.08468852266451977, 0.13209279006793023, -1.811832275390625, -0.511336669921875, 10.726094970703125
1520530966527242731, -0.3129214280843105, -0.08894958040864656, 0.13901700890213625, -1.7938696289062501, -0.5604345703125, 10.74645263671875
1520530966532257731, -0.3022687837239936, -0.09347695426178126, 0.14700649217237396, -1.7974621582031252, -0.56282958984375, 10.711724853515626
1520530966537274731, -0.29348035212673207, -0.09667274756987636, 0.1510012338074928, -1.8106347656250001, -0.53887939453125, 10.7632177734375
1520530966542289731, -0.28549086885649433, -0.09933590865995559, 0.1528654465705483, -1.85135009765625, -0.568817138671875, 10.777587890625
1520530966547304731, -0.2745719083871695, -0.09906959255094767, 0.15126754991650074, -1.8693127441406252, -0.611927490234375, 10.833870849609376
1520530966552321731, -0.2668487412259397, -0.09667274756987636, 0.1464738599543581, -1.829794921875, -0.628692626953125, 10.847043457031251
1520530966557337731, -0.25885925795570197, -0.09001484484467825, 0.13875069279312832, -1.8250048828125, -0.652642822265625, 10.941646728515625
1520530966562352731, -0.25060345857645633, -0.08388957433749601, 0.13422331893999362, -1.8106347656250001, -0.683778076171875, 10.975177001953126
1520530966567368731, -0.24421187196026617, -0.07776430383031376, 0.12969594508685892, -1.76033935546875, -0.699345703125, 11.00032470703125
1520530966572383731, -0.23755396923506805, -0.07643272328527415, 0.12357067457967666, -1.7387841796875, -0.647852783203125, 11.035052490234376
1520530966577399731, -0.23196133094590166, -0.07403587830420283, 0.11717908796348649, -1.6813037109375002, -0.613125, 10.9931396484375
1520530966582415731, -0.22583606043871943, -0.07057376888709982, 0.11584750741844686, -1.56873779296875, -0.5891748046875, 11.005114746093751
1520530966587430731, -0.22237395102161642, -0.07030745277809189, 0.11717908796348649, -1.4932946777343752, -0.587977294921875, 11.011102294921876
1520530966592446731, -0.22237395102161642, -0.07084008499610774, 0.1206411973805895, -1.466949462890625, -0.604742431640625, 11.037447509765625
1520530966597461731, -0.21811289327748962, -0.06977482056007604, 0.12170646181662119, -1.4549743652343752, -0.6274951171875001, 11.079360351562501
1520530966602478731, -0.21624868051443416, -0.06764429168801266, 0.12197277792562912, -1.4322216796875, -0.607137451171875, 11.018287353515625
1520530966607494731, -0.21305288720633908, -0.06418218227090965, 0.12117382959860534, -1.4465917968750002, -0.63228515625, 11.064990234375001
1520530966612508731, -0.21331920331534698, -0.058855860090751166, 0.11691277185447857, -1.4597644042968752, -0.6466552734375001, 11.07696533203125
1520530966617525731, -0.21598236440542623, -0.05246427347456099, 0.11132013356531216, -1.45856689453125, -0.6753955078125, 11.045830078125
1520530966622541731, -0.2135855194243549, -0.03834951969714103, 0.10652644360316954, -1.469344482421875, -0.690963134765625, 11.00990478515625
1520530966627555731, -0.2122539388793153, -0.024501082028728992, 0.0982706442239239, -1.45856689453125, -0.6933581542968751, 11.0218798828125
1520530966632572731, -0.21305288720633908, -0.004793689962142629, 0.08868326429963864, -1.474134521484375, -0.69216064453125, 10.996732177734376
1520530966637588731, -0.21145499055229153, 0.013582121559404116, 0.07483482663122659, -1.47533203125, -0.65384033203125, 11.005114746093751
1520530966642603731, -0.20879182946221228, 0.03249056529896671, 0.061519021180830406, -1.428629150390625, -0.6550378417968751, 10.99553466796875
1520530966647618731, -0.20719393280816475, 0.05459480234662439, 0.04767058351241837, -1.371148681640625, -0.702938232421875, 11.00990478515625
1520530966652635731, -0.20612866837213306, 0.07217166554114736, 0.03382214584400633, -1.3831237792968751, -0.7173083496093751, 10.953621826171876
1520530966657650731, -0.20186761062800626, 0.09427590258880504, 0.01651159875849128, -1.328038330078125, -0.69695068359375, 10.994337158203125
1520530966662665731, -0.19920444953792704, 0.11424961076439932, 0.0007989483270237715, -1.308878173828125, -0.6753955078125, 10.98595458984375
1520530966667682731, -0.19787286899288742, 0.13156015784991437, -0.020506340393610135, -1.31965576171875, -0.67060546875, 11.023077392578125
1520530966672698731, -0.19627497233883986, 0.15020228548046904, -0.037816887479125184, -1.2310400390625, -0.686173095703125, 10.999127197265626
1520530966677713731, -0.19574234012082403, 0.16937704532903955, -0.05725796343670363, -1.18553466796875, -0.75443115234375, 10.977572021484375
1520530966682729731, -0.1920139145947131, 0.1856223279785229, -0.0759000910672583, -1.159189453125, -0.741258544921875, 10.920091552734375
1520530966687744731, -0.19068233404967347, 0.19707392066586363, -0.09187905760773372, -1.071771240234375, -0.72090087890625, 10.932066650390626
1520530966692760731, -0.19068233404967347, 0.20719393280816475, -0.10892328858424084, -1.033450927734375, -0.7232958984375001, 10.8685986328125
1520530966697775731, -0.1901497018316576, 0.21331920331534698, -0.1262338356697559, -0.93645263671875, -0.784368896484375, 10.832673339843751
1520530966702791731, -0.19041601794066554, 0.21624868051443416, -0.1374191122480887, -0.8777746582031251, -0.814306640625, 10.8446484375
1520530966707808731, -0.18935075350463385, 0.2154497321874104, -0.1464738599543581, -0.87897216796875, -0.827479248046875, 10.806328125
1520530966712823731, -0.188818121286618, 0.20852551335320438, -0.1520664982435245, -0.779578857421875, -0.7879614257812501, 10.764415283203126
1520530966717839731, -0.18935075350463385, 0.20080234619197457, -0.1565938720966592, -0.718505859375, -0.73527099609375, 10.793155517578125
1520530966722855731, -0.19148128237669723, 0.19574234012082403, -0.1555286076606275, -0.6550378417968751, -0.6382727050781251, 10.765612792968751
1520530966727871731, -0.19467707568479234, 0.19068233404967347, -0.14993596937146111, -0.6634204101562501, -0.5568420410156251, 10.793155517578125
1520530966732885731, -0.1976065528838795, 0.18695390852356253, -0.14247911831923926, -0.67060546875, -0.51013916015625, 10.80872314453125
1520530966737901731, -0.20346550728205381, 0.18508969576050707, -0.13555489948503324, -0.59635986328125, -0.458646240234375, 10.841055908203126
1520530966742918731, -0.2111886744432836, 0.18588864408753084, -0.12197277792562912, -0.530496826171875, -0.47900390625, 10.90452392578125
1520530966747932731, -0.21971078993153717, 0.18056232190737237, -0.10626012749416161, -0.499361572265625, -0.50055908203125, 10.922486572265626
1520530966752949731, -0.2279665893107828, 0.17257283863713466, -0.08868326429963864, -0.468226318359375, -0.51492919921875, 10.90452392578125
1520530966757965731, -0.23648870479903636, 0.16378440703987315, -0.06870955612404435, -0.39996826171875, -0.528101806640625, 10.908116455078126
1520530966762980731, -0.24767398137736918, 0.14940333715344528, -0.047404267403410444, -0.338895263671875, -0.6083349609375001, 10.847043457031251
1520530966767996731, -0.25885925795570197, 0.13369068672197776, -0.02982740420888747, -0.34129028320312504, -0.681383056640625, 10.833870849609376
1520530966773012731, -0.2708434828610585, 0.11664645574547064, -0.012783173232380344, -0.3592529296875, -0.71611083984375, 10.78956298828125
1520530966778028731, -0.2793655983493121, 0.10066748920499521, 0.0021305288720633907, -0.4167333984375, -0.808319091796875, 10.714119873046876
1520530966783043731, -0.2910835071456608, 0.08575378710055148, 0.01171790879634865, -0.48020141601562505, -0.8753796386718751, 10.65544189453125
1520530966788058731, -0.29933930652490637, 0.0759000910672583, 0.01651159875849128, -0.5029541015625, -0.9927355957031251, 10.625504150390626
1520530966793075731, -0.31212247975728674, 0.0692421883420602, 0.017843179303530896, -0.559237060546875, -1.055006103515625, 10.630294189453126
1520530966798090731, -0.32091091135454825, 0.06178533728983833, 0.017576863194522972, -0.602347412109375, -1.0777587890625, 10.58359130859375
1520530966803105731, -0.32490565298966706, 0.058855860090751166, 0.020506340393610135, -0.6059399414062501, -1.069376220703125, 10.585986328125001
1520530966808122731, -0.3312972396058573, 0.05486111845563231, 0.019707392066586366, -0.5951623535156251, -1.1112890625, 10.556048583984376
1520530966813137731, -0.33902040676708706, 0.05379585401960062, 0.01997370817559429, -0.530496826171875, -1.076561279296875, 10.528505859375
1520530966818153731, -0.3416835678571663, 0.05566006678265608, 0.022636869265673525, -0.55803955078125, -1.052611083984375, 10.49258056640625
1520530966823168731, -0.34141725174815835, 0.05566006678265608, 0.02290318537468145, -0.5568420410156251, -1.0669812011718751, 10.4758154296875
1520530966828184731, -0.34328146451121383, 0.0569916473276957, 0.021837920938649755, -0.50055908203125, -1.074166259765625, 10.391989746093751
1520530966833200731, -0.3438140967292297, 0.0580569117637274, 0.025300030355752765, -0.532891845703125, -1.074166259765625, 10.436297607421876
1520530966838215731, -0.3382214584400633, 0.0569916473276957, 0.025300030355752765, -0.547261962890625, -1.0753637695312501, 10.436297607421876
1520530966843231731, -0.33236250404188894, 0.05832322787273532, 0.025033714246744842, -0.5760021972656251, -1.069376220703125, 10.397977294921876
1520530966848246731, -0.32463933688065916, 0.06418218227090965, 0.019707392066586366, -0.6358776855468751, -1.1256591796875, 10.427915039062501
1520530966853264731, -0.31425300862935013, 0.07297061386817114, 0.012250541014364496, -0.689765625, -1.159189453125, 10.399174804687501
1520530966858278731, -0.3073287897951441, 0.08655273542757524, 0.001331580545039619, -0.74964111328125, -1.2034973144531251, 10.419532470703125
1520530966863293731, -0.2945456165627638, 0.10519486305812992, -0.013315805450396193, -0.729283447265625, -1.2406201171875, 10.460247802734376
1520530966868310731, -0.28309402387542304, 0.12250541014364497, -0.02822950755483993, -0.7855664062500001, -1.229842529296875, 10.484197998046875
1520530966873326731, -0.2689792700980031, 0.13821806057511246, -0.048203215730434214, -0.779578857421875, -1.2070898437500002, 10.484197998046875
1520530966878342731, -0.25379925188455144, 0.15472965933360375, -0.06311691783487795, -0.667012939453125, -1.13763427734375, 10.479407958984375
1520530966883356731, -0.23622238869002846, 0.1699096775470554, -0.07696535550328999, -0.5867797851562501, -1.063388671875, 10.481802978515626
1520530966888372731, -0.223705531566656, 0.1845570635424912, -0.08522115488253562, -0.561632080078125, -0.9544152832031251, 10.496173095703126
1520530966893388731, -0.2111886744432836, 0.1920139145947131, -0.08921589651765449, -0.547261962890625, -0.904119873046875, 10.474617919921876
1520530966898403731, -0.19600865622983193, 0.1965412884478478, -0.08894958040864656, -0.504151611328125, -0.889749755859375, 10.46863037109375
1520530966903420731, -0.18349179910645952, 0.19787286899288742, -0.08708536764559109, -0.47181884765625004, -0.871787109375, 10.5380859375
1520530966908436731, -0.17257283863713466, 0.19307917903074479, -0.0849548387735277, -0.41314086914062503, -0.8753796386718751, 10.528505859375
1520530966913450731, -0.1629854587128494, 0.18482337965149914, -0.07936220048436131, -0.34727783203125, -0.91729248046875, 10.57401123046875
1520530966918466731, -0.15126754991650074, 0.18136127023439613, -0.07057376888709982, -0.346080322265625, -0.9544152832031251, 10.582393798828125
1520530966923483731, -0.1419464861012234, 0.17630126416324557, -0.060720072853806636, -0.39158569335937504, -0.99393310546875, 10.63388671875
1520530966928499731, -0.1339570028309857, 0.1744370514001901, -0.046605319076386674, -0.39398071289062503, -1.01788330078125, 10.67220703125
