# timestamp, wx, wy, wz, ax, ay, az
1.691117558834970368e+18,-4.872107186358099612e-03,1.218026796589524903e-03,3.288672350791717325e-02,1.532858880000000090e-01,-1.532858880000000090e-01,9.503725056000000393e+00
1.691117558844970496e+18,4.872107186358099612e-03,-2.436053593179049806e-03,2.923264311814859767e-02,1.532858880000000090e-01,0.000000000000000000e+00,9.503725056000000393e+00
1.691117558854970368e+18,-1.339829476248477480e-02,2.436053593179049806e-03,2.679658952496954960e-02,1.532858880000000090e-01,-1.532858880000000090e-01,9.657010944000001373e+00
1.691117558864970496e+18,7.308160779537149418e-03,1.096224116930572499e-02,3.045066991473812518e-02,1.532858880000000090e-01,0.000000000000000000e+00,9.657010944000001373e+00
1.691117558874970368e+18,7.308160779537149418e-03,1.461632155907429884e-02,3.288672350791717325e-02,1.532858880000000090e-01,-1.532858880000000090e-01,9.503725056000000393e+00
1.691117558884970496e+18,1.218026796589524903e-03,8.526187576126675188e-03,3.045066991473812518e-02,1.532858880000000090e-01,-1.532858880000000090e-01,9.350439168000001189e+00
1.691117558894970368e+18,-8.526187576126675188e-03,6.090133982947624515e-03,2.923264311814859767e-02,0.000000000000000000e+00,-1.532858880000000090e-01,9.503725056000000393e+00
1.691117558904970496e+18,-3.654080389768574709e-03,1.339829476248477480e-02,2.801461632155907364e-02,1.532858880000000090e-01,-1.532858880000000090e-01,9.657010944000001373e+00
1.691117558914970368e+18,-4.872107186358099612e-03,4.872107186358099612e-03,3.654080389768574882e-02,1.532858880000000090e-01,-1.532858880000000090e-01,9.657010944000001373e+00
1.691117558924970496e+18,1.218026796589524903e-03,8.526187576126675188e-03,2.923264311814859767e-02,1.532858880000000090e-01,-1.532858880000000090e-01,9.657010944000001373e+00
1.691117558934970368e+18,0.000000000000000000e+00,9.744214372716199224e-03,3.288672350791717325e-02,1.532858880000000090e-01,-1.532858880000000090e-01,9.503725056000000393e+00
1.691117558944970496e+18,-6.090133982947624515e-03,7.308160779537149418e-03,3.532277710109622132e-02,0.000000000000000000e+00,-3.065717760000000180e-01,9.503725056000000393e+00
1.691117558954970368e+18,1.218026796589524903e-02,1.218026796589524903e-03,3.654080389768574882e-02,0.000000000000000000e+00,-1.532858880000000090e-01,9.503725056000000393e+00
1.691117558964970496e+18,-9.744214372716199224e-03,7.308160779537149418e-03,2.436053593179049806e-02,1.532858880000000090e-01,0.000000000000000000e+00,9.503725056000000393e+00
1.691117558974970624e+18,-6.090133982947624515e-03,7.308160779537149418e-03,3.045066991473812518e-02,0.000000000000000000e+00,-3.065717760000000180e-01,9.657010944000001373e+00
1.691117558984970496e+18,4.872107186358099612e-03,4.872107186358099612e-03,3.410475030450670075e-02,1.532858880000000090e-01,0.000000000000000000e+00,9.503725056000000393e+00
1.691117558994970624e+18,6.090133982947624515e-03,1.096224116930572499e-02,3.775883069427527633e-02,3.065717760000000180e-01,-1.532858880000000090e-01,9.657010944000001373e+00
1.691117559004970496e+18,4.872107186358099612e-03,1.339829476248477480e-02,3.532277710109622132e-02,3.065717760000000180e-01,-1.532858880000000090e-01,9.503725056000000393e+00
1.691117559014970624e+18,-8.526187576126675188e-03,1.705237515225335038e-02,2.801461632155907364e-02,3.065717760000000180e-01,-1.532858880000000090e-01,9.657010944000001373e+00
1.691117559024970496e+18,9.744214372716199224e-03,1.461632155907429884e-02,2.436053593179049806e-02,3.065717760000000180e-01,-1.532858880000000090e-01,9.657010944000001373e+00
1.691117559034970624e+18,2.436053593179049806e-03,3.654080389768574709e-03,3.410475030450670075e-02,1.532858880000000090e-01,-1.532858880000000090e-01,9.503725056000000393e+00
1.691117559044970496e+18,3.654080389768574709e-03,1.827040194884287441e-02,2.314250913520097402e-02,1.532858880000000090e-01,-1.532858880000000090e-01,9.657010944000001373e+00
1.691117559054970624e+18,9.744214372716199224e-03,1.096224116930572499e-02,3.532277710109622132e-02,1.532858880000000090e-01,-1.532858880000000090e-01,9.657010944000001373e+00
1.691117559064970496e+18,-3.654080389768574709e-03,1.339829476248477480e-02,2.801461632155907364e-02,1.532858880000000090e-01,0.000000000000000000e+00,9.657010944000001373e+00
1.691117559074970368e+18,3.654080389768574709e-03,1.339829476248477480e-02,2.801461632155907364e-02,1.532858880000000090e-01,0.000000000000000000e+00,9.810296832000000578e+00
1.691117559084970496e+18,-1.218026796589524903e-03,1.218026796589524903e-03,3.775883069427527633e-02,0.000000000000000000e+00,0.000000000000000000e+00,9.657010944000001373e+00
1.691117559094970368e+18,-1.218026796589524903e-03,1.218026796589524903e-02,2.801461632155907364e-02,0.000000000000000000e+00,0.000000000000000000e+00,9.657010944000001373e+00
1.691117559104970496e+18,2.436053593179049806e-03,8.526187576126675188e-03,2.923264311814859767e-02,1.532858880000000090e-01,-1.532858880000000090e-01,9.657010944000001373e+00
1.691117559114970368e+18,3.654080389768574709e-03,1.339829476248477480e-02,3.532277710109622132e-02,1.532858880000000090e-01,0.000000000000000000e+00,9.657010944000001373e+00
1.691117559124970496e+18,7.308160779537149418e-03,7.308160779537149418e-03,2.923264311814859767e-02,0.000000000000000000e+00,0.000000000000000000e+00,9.657010944000001373e+00
1.691117559134970368e+18,2.436053593179049806e-03,1.339829476248477480e-02,3.166869671132764574e-02,3.065717760000000180e-01,-1.532858880000000090e-01,9.503725056000000393e+00
1.691117559144970496e+18,-6.090133982947624515e-03,1.948842874543239845e-02,2.801461632155907364e-02,0.000000000000000000e+00,-1.532858880000000090e-01,9.503725056000000393e+00
1.691117559154970368e+18,9.744214372716199224e-03,2.436053593179049806e-03,2.314250913520097402e-02,1.532858880000000090e-01,-1.532858880000000090e-01,9.657010944000001373e+00
1.691117559164970496e+18,-4.872107186358099612e-03,1.705237515225335038e-02,3.410475030450670075e-02,0.000000000000000000e+00,0.000000000000000000e+00,9.657010944000001373e+00
1.691117559174970368e+18,-3.654080389768574709e-03,7.308160779537149418e-03,3.410475030450670075e-02,0.000000000000000000e+00,0.000000000000000000e+00,9.503725056000000393e+00
1.691117559184970496e+18,-1.218026796589524903e-02,7.308160779537149418e-03,3.654080389768574882e-02,1.532858880000000090e-01,-1.532858880000000090e-01,9.503725056000000393e+00
1.691117559194970368e+18,1.218026796589524903e-03,8.526187576126675188e-03,3.166869671132764574e-02,3.065717760000000180e-01,0.000000000000000000e+00,9.350439168000001189e+00
1.691117559204970240e+18,2.436053593179049806e-03,4.872107186358099612e-03,3.166869671132764574e-02,1.532858880000000090e-01,-1.532858880000000090e-01,9.657010944000001373e+00
1.691117559214970624e+18,6.090133982947624515e-03,0.000000000000000000e+00,3.166869671132764574e-02,3.065717760000000180e-01,-1.532858880000000090e-01,9.503725056000000393e+00
1.691117559224970496e+18,8.526187576126675188e-03,1.461632155907429884e-02,3.532277710109622132e-02,1.532858880000000090e-01,0.000000000000000000e+00,9.657010944000001373e+00
1.691117559234970624e+18,-8.526187576126675188e-03,1.461632155907429884e-02,3.045066991473812518e-02,0.000000000000000000e+00,-1.532858880000000090e-01,9.657010944000001373e+00
1.691117559244970496e+18,-2.436053593179049806e-03,1.461632155907429884e-02,3.288672350791717325e-02,1.532858880000000090e-01,-1.532858880000000090e-01,9.657010944000001373e+00
1.691117559254970624e+18,-2.436053593179049806e-03,1.461632155907429884e-02,2.923264311814859767e-02,1.532858880000000090e-01,-1.532858880000000090e-01,9.657010944000001373e+00
1.691117559264970496e+18,-4.872107186358099612e-03,1.096224116930572499e-02,3.166869671132764574e-02,1.532858880000000090e-01,0.000000000000000000e+00,9.503725056000000393e+00
1.691117559274970624e+18,-3.654080389768574709e-03,6.090133982947624515e-03,3.045066991473812518e-02,0.000000000000000000e+00,-1.532858880000000090e-01,9.503725056000000393e+00
1.691117559284970496e+18,0.000000000000000000e+00,4.872107186358099612e-03,3.897685749086479690e-02,0.000000000000000000e+00,0.000000000000000000e+00,9.810296832000000578e+00
1.691117559294970624e+18,1.218026796589524903e-03,1.583434835566382287e-02,2.679658952496954960e-02,-4.598576639999999993e-01,-3.065717760000000180e-01,9.350439168000001189e+00
1.691117559304970496e+18,-4.872107186358099612e-03,9.744214372716199224e-03,3.654080389768574882e-02,3.065717760000000180e-01,-1.532858880000000090e-01,9.503725056000000393e+00
1.691117559314970368e+18,-4.872107186358099612e-03,9.744214372716199224e-03,3.045066991473812518e-02,0.000000000000000000e+00,-1.532858880000000090e-01,9.503725056000000393e+00
1.691117559324970496e+18,-1.583434835566382287e-02,1.583434835566382287e-02,3.045066991473812518e-02,1.532858880000000090e-01,-3.065717760000000180e-01,9.657010944000001373e+00
1.691117559334970368e+18,2.436053593179049806e-03,8.526187576126675188e-03,2.801461632155907364e-02,0.000000000000000000e+00,-1.532858880000000090e-01,9.503725056000000393e+00
1.691117559344970496e+18,3.654080389768574709e-03,3.654080389768574709e-03,2.801461632155907364e-02,1.532858880000000090e-01,-1.532858880000000090e-01,9.657010944000001373e+00
1.691117559354970368e+18,-3.654080389768574709e-03,1.218026796589524903e-02,3.288672350791717325e-02,1.532858880000000090e-01,-1.532858880000000090e-01,9.503725056000000393e+00
1.691117559364970496e+18,-1.218026796589524903e-03,1.339829476248477480e-02,3.410475030450670075e-02,1.532858880000000090e-01,-1.532858880000000090e-01,9.657010944000001373e+00
1.691117559374970368e+18,-6.090133982947624515e-03,6.090133982947624515e-03,3.775883069427527633e-02,3.065717760000000180e-01,-1.532858880000000090e-01,9.503725056000000393e+00
1.691117559384970496e+18,-1.218026796589524903e-03,7.308160779537149418e-03,4.506699147381242054e-02,1.532858880000000090e-01,-1.532858880000000090e-01,9.503725056000000393e+00
1.691117559394970368e+18,2.436053593179049806e-03,1.218026796589524903e-02,3.045066991473812518e-02,0.000000000000000000e+00,-1.532858880000000090e-01,9.503725056000000393e+00
1.691117559404970496e+18,0.000000000000000000e+00,8.526187576126675188e-03,2.557856272838002556e-02,1.532858880000000090e-01,-1.532858880000000090e-01,9.503725056000000393e+00
1.691117559414970368e+18,2.436053593179049806e-03,2.436053593179049806e-03,2.801461632155907364e-02,0.000000000000000000e+00,-1.532858880000000090e-01,9.503725056000000393e+00
1.691117559424970496e+18,1.218026796589524903e-03,1.096224116930572499e-02,3.045066991473812518e-02,3.065717760000000180e-01,0.000000000000000000e+00,9.657010944000001373e+00
1.691117559434970368e+18,0.000000000000000000e+00,1.218026796589524903e-02,2.923264311814859767e-02,3.065717760000000180e-01,-1.532858880000000090e-01,9.503725056000000393e+00
1.691117559444970496e+18,2.436053593179049806e-03,8.526187576126675188e-03,3.166869671132764574e-02,7.664294400000000174e-01,-3.065717760000000180e-01,9.503725056000000393e+00
1.691117559454970368e+18,1.218026796589524903e-03,8.526187576126675188e-03,2.923264311814859767e-02,1.532858880000000090e-01,0.000000000000000000e+00,9.657010944000001373e+00
1.691117559464970496e+18,8.526187576126675188e-03,1.096224116930572499e-02,3.410475030450670075e-02,3.065717760000000180e-01,-3.065717760000000180e-01,9.503725056000000393e+00
1.691117559474970624e+18,-4.872107186358099612e-03,7.308160779537149418e-03,2.679658952496954960e-02,1.532858880000000090e-01,0.000000000000000000e+00,9.657010944000001373e+00
1.691117559484970496e+18,2.436053593179049806e-03,1.339829476248477480e-02,2.679658952496954960e-02,1.532858880000000090e-01,-1.532858880000000090e-01,9.503725056000000393e+00
1.691117559494970624e+18,4.872107186358099612e-03,1.583434835566382287e-02,3.410475030450670075e-02,3.065717760000000180e-01,-1.532858880000000090e-01,9.350439168000001189e+00
1.691117559504970496e+18,-6.090133982947624515e-03,9.744214372716199224e-03,2.436053593179049806e-02,1.532858880000000090e-01,0.000000000000000000e+00,9.657010944000001373e+00
1.691117559514970624e+18,2.436053593179049806e-03,1.339829476248477480e-02,2.801461632155907364e-02,3.065717760000000180e-01,-1.532858880000000090e-01,9.657010944000001373e+00
1.691117559524970496e+18,7.308160779537149418e-03,1.218026796589524903e-02,2.801461632155907364e-02,1.532858880000000090e-01,-1.532858880000000090e-01,9.657010944000001373e+00
1.691117559534970624e+18,9.744214372716199224e-03,9.744214372716199224e-03,2.923264311814859767e-02,3.065717760000000180e-01,-1.532858880000000090e-01,9.657010944000001373e+00
1.691117559544970496e+18,1.339829476248477480e-02,8.526187576126675188e-03,2.923264311814859767e-02,1.532858880000000090e-01,-1.532858880000000090e-01,9.503725056000000393e+00
1.691117559554970624e+18,-3.654080389768574709e-03,7.308160779537149418e-03,3.288672350791717325e-02,0.000000000000000000e+00,-1.532858880000000090e-01,9.657010944000001373e+00
1.691117559564970496e+18,-3.654080389768574709e-03,1.583434835566382287e-02,3.775883069427527633e-02,1.532858880000000090e-01,-1.532858880000000090e-01,9.503725056000000393e+00
1.691117559574970368e+18,0.000000000000000000e+00,1.096224116930572499e-02,2.923264311814859767e-02,6.131435520000000361e-01,-1.532858880000000090e-01,9.503725056000000393e+00
1.691117559584970496e+18,-7.308160779537149418e-03,7.308160779537149418e-03,2.436053593179049806e-02,0.000000000000000000e+00,-1.532858880000000090e-01,9.503725056000000393e+00
1.691117559594970368e+18,6.090133982947624515e-03,9.744214372716199224e-03,2.801461632155907364e-02,3.065717760000000180e-01,-1.532858880000000090e-01,9.657010944000001373e+00
1.691117559604970496e+18,-2.436053593179049806e-03,8.526187576126675188e-03,3.532277710109622132e-02,1.532858880000000090e-01,0.000000000000000000e+00,9.503725056000000393e+00
1.691117559614970368e+18,0.000000000000000000e+00,1.218026796589524903e-02,3.288672350791717325e-02,1.532858880000000090e-01,-1.532858880000000090e-01,9.657010944000001373e+00
1.691117559624970496e+18,-6.090133982947624515e-03,1.339829476248477480e-02,2.923264311814859767e-02,3.065717760000000180e-01,-1.532858880000000090e-01,9.657010944000001373e+00
1.691117559634970368e+18,1.218026796589524903e-03,3.654080389768574709e-03,3.166869671132764574e-02,1.532858880000000090e-01,0.000000000000000000e+00,9.810296832000000578e+00
1.691117559644970496e+18,-1.218026796589524903e-03,6.090133982947624515e-03,3.532277710109622132e-02,0.000000000000000000e+00,0.000000000000000000e+00,9.657010944000001373e+00
1.691117559654970368e+18,3.654080389768574709e-03,8.526187576126675188e-03,2.557856272838002556e-02,1.532858880000000090e-01,-1.532858880000000090e-01,9.503725056000000393e+00
1.691117559664970496e+18,-2.436053593179049806e-03,7.308160779537149418e-03,3.654080389768574882e-02,3.065717760000000180e-01,0.000000000000000000e+00,9.503725056000000393e+00
1.691117559674970368e+18,-6.090133982947624515e-03,4.872107186358099612e-03,2.923264311814859767e-02,1.532858880000000090e-01,-1.532858880000000090e-01,9.657010944000001373e+00
1.691117559684970496e+18,-2.436053593179049806e-03,1.339829476248477480e-02,2.679658952496954960e-02,1.532858880000000090e-01,-1.532858880000000090e-01,9.503725056000000393e+00
1.691117559694970368e+18,-1.218026796589524903e-03,8.526187576126675188e-03,2.557856272838002556e-02,3.065717760000000180e-01,0.000000000000000000e+00,9.657010944000001373e+00
1.691117559704970240e+18,2.436053593179049806e-03,1.218026796589524903e-02,3.288672350791717325e-02,4.598576639999999993e-01,-1.532858880000000090e-01,9.503725056000000393e+00
1.691117559714970624e+18,6.090133982947624515e-03,1.339829476248477480e-02,2.923264311814859767e-02,0.000000000000000000e+00,-3.065717760000000180e-01,9.350439168000001189e+00
1.691117559724970496e+18,8.526187576126675188e-03,6.090133982947624515e-03,4.019488428745432440e-02,1.532858880000000090e-01,-1.532858880000000090e-01,9.350439168000001189e+00
1.691117559734970624e+18,0.000000000000000000e+00,2.436053593179049806e-03,3.288672350791717325e-02,0.000000000000000000e+00,-3.065717760000000180e-01,9.503725056000000393e+00
1.691117559744970496e+18,0.000000000000000000e+00,4.872107186358099612e-03,3.045066991473812518e-02,1.532858880000000090e-01,-1.532858880000000090e-01,9.503725056000000393e+00
1.691117559754970624e+18,7.308160779537149418e-03,1.218026796589524903e-02,2.679658952496954960e-02,1.532858880000000090e-01,-1.532858880000000090e-01,9.657010944000001373e+00
1.691117559764970496e+18,0.000000000000000000e+00,3.654080389768574709e-03,3.288672350791717325e-02,3.065717760000000180e-01,-1.532858880000000090e-01,9.503725056000000393e+00
1.691117559774970624e+18,1.218026796589524903e-03,4.872107186358099612e-03,3.166869671132764574e-02,3.065717760000000180e-01,-3.065717760000000180e-01,9.657010944000001373e+00
1.691117559784970496e+18,-6.090133982947624515e-03,3.654080389768574709e-03,2.801461632155907364e-02,1.532858880000000090e-01,-1.532858880000000090e-01,9.657010944000001373e+00
1.691117559794970624e+18,4.872107186358099612e-03,1.096224116930572499e-02,2.801461632155907364e-02,4.598576639999999993e-01,-1.532858880000000090e-01,9.503725056000000393e+00
1.691117559804970496e+18,1.218026796589524903e-03,8.526187576126675188e-03,3.288672350791717325e-02,1.532858880000000090e-01,-1.532858880000000090e-01,9.657010944000001373e+00
1.691117559814970368e+18,-6.090133982947624515e-03,1.339829476248477480e-02,2.436053593179049806e-02,4.598576639999999993e-01,-1.532858880000000090e-01,9.503725056000000393e+00
1.691117559824970496e+18,7.308160779537149418e-03,1.096224116930572499e-02,3.045066991473812518e-02,3.065717760000000180e-01,-1.532858880000000090e-01,9.657010944000001373e+00
1.691117559834970368e+18,1.218026796589524903e-03,8.526187576126675188e-03,3.045066991473812518e-02,-1.532858880000000090e-01,-1.532858880000000090e-01,9.350439168000001189e+00
1.691117559844970496e+18,-8.526187576126675188e-03,3.654080389768574709e-03,3.288672350791717325e-02,1.532858880000000090e-01,-1.532858880000000090e-01,9.503725056000000393e+00
1.691117559854970368e+18,-1.218026796589524903e-03,6.090133982947624515e-03,3.288672350791717325e-02,1.532858880000000090e-01,-1.532858880000000090e-01,9.503725056000000393e+00
1.691117559864970496e+18,4.872107186358099612e-03,1.218026796589524903e-02,3.410475030450670075e-02,3.065717760000000180e-01,0.000000000000000000e+00,9.657010944000001373e+00
1.691117559874970368e+18,-1.218026796589524903e-03,1.096224116930572499e-02,2.923264311814859767e-02,0.000000000000000000e+00,-1.532858880000000090e-01,9.657010944000001373e+00
1.691117559884970496e+18,-9.744214372716199224e-03,6.090133982947624515e-03,3.532277710109622132e-02,1.532858880000000090e-01,-1.532858880000000090e-01,9.503725056000000393e+00
1.691117559894970368e+18,0.000000000000000000e+00,1.583434835566382287e-02,2.801461632155907364e-02,0.000000000000000000e+00,0.000000000000000000e+00,9.350439168000001189e+00
1.691117559904970496e+18,8.526187576126675188e-03,1.218026796589524903e-02,3.166869671132764574e-02,-4.598576639999999993e-01,0.000000000000000000e+00,9.503725056000000393e+00
1.691117559914970368e+18,-4.872107186358099612e-03,1.218026796589524903e-02,2.801461632155907364e-02,0.000000000000000000e+00,0.000000000000000000e+00,9.657010944000001373e+00
1.691117559924970496e+18,1.096224116930572499e-02,1.583434835566382287e-02,2.923264311814859767e-02,4.598576639999999993e-01,-1.532858880000000090e-01,9.503725056000000393e+00
1.691117559934970368e+18,3.654080389768574709e-03,9.744214372716199224e-03,2.923264311814859767e-02,0.000000000000000000e+00,-3.065717760000000180e-01,9.657010944000001373e+00
1.691117559944970496e+18,3.654080389768574709e-03,2.436053593179049806e-03,3.410475030450670075e-02,1.532858880000000090e-01,-1.532858880000000090e-01,9.503725056000000393e+00
1.691117559954970368e+18,-6.090133982947624515e-03,1.218026796589524903e-02,3.288672350791717325e-02,1.532858880000000090e-01,-1.532858880000000090e-01,9.503725056000000393e+00
1.691117559964970496e+18,1.218026796589524903e-03,7.308160779537149418e-03,3.288672350791717325e-02,1.532858880000000090e-01,-3.065717760000000180e-01,9.657010944000001373e+00
1.691117559974970624e+18,4.872107186358099612e-03,1.096224116930572499e-02,2.801461632155907364e-02,1.532858880000000090e-01,0.000000000000000000e+00,9.503725056000000393e+00
1.691117559984970496e+18,0.000000000000000000e+00,4.872107186358099612e-03,2.923264311814859767e-02,0.000000000000000000e+00,-1.532858880000000090e-01,9.503725056000000393e+00
1.691117559994970624e+18,-8.526187576126675188e-03,8.526187576126675188e-03,3.775883069427527633e-02,1.532858880000000090e-01,0.000000000000000000e+00,9.657010944000001373e+00
1.691117560004970496e+18,1.218026796589524903e-03,9.744214372716199224e-03,3.288672350791717325e-02,1.532858880000000090e-01,-1.532858880000000090e-01,9.503725056000000393e+00
1.691117560014970624e+18,6.090133982947624515e-03,3.654080389768574709e-03,2.801461632155907364e-02,0.000000000000000000e+00,0.000000000000000000e+00,9.657010944000001373e+00
1.691117560024970496e+18,1.218026796589524903e-03,-1.218026796589524903e-03,4.019488428745432440e-02,-1.532858880000000090e-01,-1.532858880000000090e-01,9.503725056000000393e+00
1.691117560034970624e+18,1.461632155907429884e-02,7.308160779537149418e-03,3.166869671132764574e-02,3.065717760000000180e-01,0.000000000000000000e+00,9.657010944000001373e+00
1.691117560044970496e+18,-1.218026796589524903e-03,1.218026796589524903e-02,3.166869671132764574e-02,1.532858880000000090e-01,0.000000000000000000e+00,9.503725056000000393e+00
1.691117560054970624e+18,-2.436053593179049806e-03,1.583434835566382287e-02,2.679658952496954960e-02,1.532858880000000090e-01,0.000000000000000000e+00,9.503725056000000393e+00
1.691117560064970496e+18,-4.872107186358099612e-03,7.308160779537149418e-03,3.410475030450670075e-02,1.532858880000000090e-01,0.000000000000000000e+00,9.503725056000000393e+00
1.691117560074970368e+18,0.000000000000000000e+00,1.461632155907429884e-02,2.436053593179049806e-02,1.532858880000000090e-01,0.000000000000000000e+00,9.503725056000000393e+00
1.691117560084970496e+18,-4.872107186358099612e-03,1.218026796589524903e-02,3.654080389768574882e-02,1.532858880000000090e-01,-1.532858880000000090e-01,9.657010944000001373e+00
1.691117560094970368e+18,-6.090133982947624515e-03,6.090133982947624515e-03,3.045066991473812518e-02,1.532858880000000090e-01,-1.532858880000000090e-01,9.503725056000000393e+00
1.691117560104970496e+18,-9.744214372716199224e-03,8.526187576126675188e-03,3.775883069427527633e-02,1.532858880000000090e-01,-1.532858880000000090e-01,9.503725056000000393e+00
1.691117560114970368e+18,7.308160779537149418e-03,1.339829476248477480e-02,3.166869671132764574e-02,1.532858880000000090e-01,-1.532858880000000090e-01,9.503725056000000393e+00
1.691117560124970496e+18,1.339829476248477480e-02,1.218026796589524903e-02,3.532277710109622132e-02,3.065717760000000180e-01,0.000000000000000000e+00,9.503725056000000393e+00
1.691117560134970368e+18,3.654080389768574709e-03,7.308160779537149418e-03,2.923264311814859767e-02,1.532858880000000090e-01,-1.532858880000000090e-01,9.503725056000000393e+00
1.691117560144970496e+18,1.218026796589524903e-02,6.090133982947624515e-03,3.410475030450670075e-02,1.532858880000000090e-01,-1.532858880000000090e-01,9.503725056000000393e+00
1.691117560154970368e+18,6.090133982947624515e-03,1.096224116930572499e-02,2.801461632155907364e-02,0.000000000000000000e+00,-1.532858880000000090e-01,9.503725056000000393e+00
1.691117560164970496e+18,-1.218026796589524903e-03,1.096224116930572499e-02,2.801461632155907364e-02,3.065717760000000180e-01,0.000000000000000000e+00,9.810296832000000578e+00
1.691117560174970368e+18,8.526187576126675188e-03,1.583434835566382287e-02,3.045066991473812518e-02,3.065717760000000180e-01,-1.532858880000000090e-01,9.503725056000000393e+00
1.691117560184970496e+18,0.000000000000000000e+00,8.526187576126675188e-03,3.288672350791717325e-02,-1.532858880000000090e-01,-1.532858880000000090e-01,9.657010944000001373e+00
1.691117560194970368e+18,0.000000000000000000e+00,9.744214372716199224e-03,3.166869671132764574e-02,3.065717760000000180e-01,-1.532858880000000090e-01,9.503725056000000393e+00
1.691117560204970240e+18,6.090133982947624515e-03,1.218026796589524903e-02,3.288672350791717325e-02,3.065717760000000180e-01,-1.532858880000000090e-01,9.657010944000001373e+00
1.691117560214970624e+18,-2.436053593179049806e-03,1.705237515225335038e-02,2.679658952496954960e-02,-1.532858880000000090e-01,-1.532858880000000090e-01,9.657010944000001373e+00
1.691117560224970496e+18,-1.218026796589524903e-03,1.096224116930572499e-02,3.166869671132764574e-02,1.532858880000000090e-01,-1.532858880000000090e-01,9.657010944000001373e+00
1.691117560234970624e+18,-3.654080389768574709e-03,1.096224116930572499e-02,3.166869671132764574e-02,1.532858880000000090e-01,-1.532858880000000090e-01,9.657010944000001373e+00
1.691117560244970496e+18,-2.436053593179049806e-03,1.218026796589524903e-03,3.410475030450670075e-02,0.000000000000000000e+00,-1.532858880000000090e-01,9.503725056000000393e+00
1.691117560254970624e+18,-1.218026796589524903e-03,1.096224116930572499e-02,3.532277710109622132e-02,-1.532858880000000090e-01,0.000000000000000000e+00,9.657010944000001373e+00
1.691117560264970496e+18,-2.436053593179049806e-03,7.308160779537149418e-03,3.654080389768574882e-02,1.532858880000000090e-01,-1.532858880000000090e-01,9.503725056000000393e+00
1.691117560274970624e+18,2.436053593179049806e-03,1.218026796589524903e-02,3.532277710109622132e-02,0.000000000000000000e+00,0.000000000000000000e+00,9.657010944000001373e+00
1.691117560284970496e+18,1.583434835566382287e-02,1.218026796589524903e-02,3.288672350791717325e-02,3.065717760000000180e-01,0.000000000000000000e+00,9.657010944000001373e+00
1.691117560294970624e+18,1.096224116930572499e-02,6.090133982947624515e-03,2.923264311814859767e-02,0.000000000000000000e+00,0.000000000000000000e+00,9.657010944000001373e+00
1.691117560304970496e+18,2.436053593179049806e-03,1.461632155907429884e-02,3.045066991473812518e-02,3.065717760000000180e-01,-1.532858880000000090e-01,9.657010944000001373e+00
1.691117560314970368e+18,6.090133982947624515e-03,1.096224116930572499e-02,2.679658952496954960e-02,3.065717760000000180e-01,-1.532858880000000090e-01,9.810296832000000578e+00
1.691117560324970496e+18,-1.218026796589524903e-03,1.218026796589524903e-02,3.775883069427527633e-02,1.532858880000000090e-01,-1.532858880000000090e-01,9.503725056000000393e+00
1.691117560334970368e+18,0.000000000000000000e+00,7.308160779537149418e-03,2.801461632155907364e-02,0.000000000000000000e+00,-1.532858880000000090e-01,9.503725056000000393e+00
1.691117560344970496e+18,4.872107186358099612e-03,1.096224116930572499e-02,3.045066991473812518e-02,3.065717760000000180e-01,-1.532858880000000090e-01,9.350439168000001189e+00
1.691117560354970368e+18,1.218026796589524903e-03,7.308160779537149418e-03,2.801461632155907364e-02,3.065717760000000180e-01,0.000000000000000000e+00,9.657010944000001373e+00
1.691117560364970496e+18,4.872107186358099612e-03,6.090133982947624515e-03,2.923264311814859767e-02,3.065717760000000180e-01,-1.532858880000000090e-01,9.350439168000001189e+00
1.691117560374970368e+18,-3.654080389768574709e-03,8.526187576126675188e-03,3.045066991473812518e-02,1.532858880000000090e-01,-1.532858880000000090e-01,9.657010944000001373e+00
1.691117560384970496e+18,1.218026796589524903e-03,8.526187576126675188e-03,3.045066991473812518e-02,0.000000000000000000e+00,-1.532858880000000090e-01,9.657010944000001373e+00
1.691117560394970368e+18,2.436053593179049806e-03,1.096224116930572499e-02,3.410475030450670075e-02,0.000000000000000000e+00,-1.532858880000000090e-01,9.503725056000000393e+00
1.691117560404970496e+18,2.436053593179049806e-03,1.218026796589524903e-02,3.897685749086479690e-02,-3.065717760000000180e-01,-1.532858880000000090e-01,9.350439168000001189e+00
1.691117560414970368e+18,0.000000000000000000e+00,3.654080389768574709e-03,4.141291108404385191e-02,1.532858880000000090e-01,-1.532858880000000090e-01,9.503725056000000393e+00
1.691117560424970496e+18,2.436053593179049806e-03,9.744214372716199224e-03,2.801461632155907364e-02,1.532858880000000090e-01,0.000000000000000000e+00,9.503725056000000393e+00
1.691117560434970368e+18,4.872107186358099612e-03,1.339829476248477480e-02,2.801461632155907364e-02,0.000000000000000000e+00,0.000000000000000000e+00,9.657010944000001373e+00
1.691117560444970496e+18,-3.654080389768574709e-03,1.461632155907429884e-02,2.923264311814859767e-02,4.598576639999999993e-01,0.000000000000000000e+00,9.657010944000001373e+00
1.691117560454970368e+18,0.000000000000000000e+00,1.339829476248477480e-02,3.532277710109622132e-02,1.532858880000000090e-01,0.000000000000000000e+00,9.503725056000000393e+00
1.691117560464970496e+18,0.000000000000000000e+00,1.218026796589524903e-02,2.436053593179049806e-02,1.532858880000000090e-01,-1.532858880000000090e-01,9.503725056000000393e+00
1.691117560474970624e+18,1.218026796589524903e-03,1.096224116930572499e-02,3.045066991473812518e-02,3.065717760000000180e-01,-1.532858880000000090e-01,9.503725056000000393e+00
1.691117560484970496e+18,2.436053593179049806e-03,1.339829476248477480e-02,3.166869671132764574e-02,0.000000000000000000e+00,-1.532858880000000090e-01,9.657010944000001373e+00
1.691117560494970624e+18,1.218026796589524903e-03,9.744214372716199224e-03,2.557856272838002556e-02,1.532858880000000090e-01,-1.532858880000000090e-01,9.503725056000000393e+00
1.691117560504970496e+18,0.000000000000000000e+00,1.218026796589524903e-02,3.045066991473812518e-02,4.598576639999999993e-01,-1.532858880000000090e-01,9.657010944000001373e+00
1.691117560514970624e+18,-6.090133982947624515e-03,8.526187576126675188e-03,2.801461632155907364e-02,1.532858880000000090e-01,0.000000000000000000e+00,9.503725056000000393e+00
1.691117560524970496e+18,-8.526187576126675188e-03,7.308160779537149418e-03,3.654080389768574882e-02,3.065717760000000180e-01,-1.532858880000000090e-01,9.657010944000001373e+00
1.691117560534970624e+18,6.090133982947624515e-03,7.308160779537149418e-03,3.045066991473812518e-02,0.000000000000000000e+00,-1.532858880000000090e-01,9.503725056000000393e+00
1.691117560544970496e+18,3.654080389768574709e-03,1.096224116930572499e-02,2.801461632155907364e-02,1.532858880000000090e-01,-1.532858880000000090e-01,9.657010944000001373e+00
1.691117560554970624e+18,3.654080389768574709e-03,9.744214372716199224e-03,3.654080389768574882e-02,0.000000000000000000e+00,0.000000000000000000e+00,9.657010944000001373e+00
1.691117560564970496e+18,1.096224116930572499e-02,6.090133982947624515e-03,3.045066991473812518e-02,0.000000000000000000e+00,-1.532858880000000090e-01,9.657010944000001373e+00
1.691117560574970368e+18,-6.090133982947624515e-03,1.096224116930572499e-02,3.045066991473812518e-02,3.065717760000000180e-01,-1.532858880000000090e-01,9.503725056000000393e+00
1.691117560584970496e+18,0.000000000000000000e+00,1.827040194884287441e-02,3.045066991473812518e-02,0.000000000000000000e+00,-1.532858880000000090e-01,9.657010944000001373e+00
1.691117560594970368e+18,3.654080389768574709e-03,7.308160779537149418e-03,2.801461632155907364e-02,3.065717760000000180e-01,-1.532858880000000090e-01,9.350439168000001189e+00
1.691117560604970496e+18,1.218026796589524903e-03,6.090133982947624515e-03,2.923264311814859767e-02,1.532858880000000090e-01,-1.532858880000000090e-01,9.503725056000000393e+00
1.691117560614970368e+18,8.526187576126675188e-03,1.218026796589524903e-02,3.166869671132764574e-02,4.598576639999999993e-01,-1.532858880000000090e-01,9.657010944000001373e+00
1.691117560624970496e+18,1.218026796589524903e-03,6.090133982947624515e-03,3.288672350791717325e-02,1.532858880000000090e-01,-1.532858880000000090e-01,9.657010944000001373e+00
1.691117560634970368e+18,6.090133982947624515e-03,1.339829476248477480e-02,3.166869671132764574e-02,0.000000000000000000e+00,-1.532858880000000090e-01,9.503725056000000393e+00
1.691117560644970496e+18,6.090133982947624515e-03,7.308160779537149418e-03,2.801461632155907364e-02,1.532858880000000090e-01,-1.532858880000000090e-01,9.657010944000001373e+00
1.691117560654970368e+18,-1.218026796589524903e-03,1.218026796589524903e-02,3.897685749086479690e-02,1.532858880000000090e-01,-1.532858880000000090e-01,9.657010944000001373e+00
1.691117560664970496e+18,-1.218026796589524903e-03,7.308160779537149418e-03,4.019488428745432440e-02,-1.532858880000000090e-01,0.000000000000000000e+00,9.503725056000000393e+00
1.691117560674970368e+18,-2.436053593179049806e-03,4.872107186358099612e-03,2.436053593179049806e-02,3.065717760000000180e-01,-1.532858880000000090e-01,9.503725056000000393e+00
1.691117560684970496e+18,-1.096224116930572499e-02,1.218026796589524903e-02,3.532277710109622132e-02,1.532858880000000090e-01,0.000000000000000000e+00,9.657010944000001373e+00
1.691117560694970368e+18,3.654080389768574709e-03,8.526187576126675188e-03,3.166869671132764574e-02,1.532858880000000090e-01,-1.532858880000000090e-01,9.503725056000000393e+00
1.691117560704970240e+18,0.000000000000000000e+00,1.339829476248477480e-02,3.288672350791717325e-02,0.000000000000000000e+00,0.000000000000000000e+00,9.657010944000001373e+00
1.691117560714970624e+18,-1.218026796589524903e-03,7.308160779537149418e-03,3.654080389768574882e-02,3.065717760000000180e-01,-1.532858880000000090e-01,9.503725056000000393e+00
1.691117560724970496e+18,-6.090133982947624515e-03,9.744214372716199224e-03,3.410475030450670075e-02,1.532858880000000090e-01,-1.532858880000000090e-01,9.503725056000000393e+00
1.691117560734970624e+18,-1.218026796589524903e-03,6.090133982947624515e-03,3.410475030450670075e-02,0.000000000000000000e+00,1.532858880000000090e-01,9.657010944000001373e+00
1.691117560744970496e+18,1.218026796589524903e-03,1.096224116930572499e-02,2.923264311814859767e-02,1.532858880000000090e-01,-1.532858880000000090e-01,9.503725056000000393e+00
1.691117560754970624e+18,-9.744214372716199224e-03,8.526187576126675188e-03,3.045066991473812518e-02,6.131435520000000361e-01,-1.532858880000000090e-01,9.657010944000001373e+00
1.691117560764970496e+18,6.090133982947624515e-03,9.744214372716199224e-03,2.923264311814859767e-02,0.000000000000000000e+00,-1.532858880000000090e-01,9.503725056000000393e+00
1.691117560774970624e+18,-2.436053593179049806e-03,7.308160779537149418e-03,3.410475030450670075e-02,0.000000000000000000e+00,0.000000000000000000e+00,9.657010944000001373e+00
1.691117560784970496e+18,6.090133982947624515e-03,8.526187576126675188e-03,3.045066991473812518e-02,4.598576639999999993e-01,-1.532858880000000090e-01,9.657010944000001373e+00
1.691117560794970624e+18,1.218026796589524903e-03,1.096224116930572499e-02,3.166869671132764574e-02,1.532858880000000090e-01,-3.065717760000000180e-01,9.657010944000001373e+00
1.691117560804970496e+18,7.308160779537149418e-03,2.436053593179049806e-03,3.166869671132764574e-02,1.532858880000000090e-01,-1.532858880000000090e-01,9.810296832000000578e+00
1.691117560814970368e+18,-1.096224116930572499e-02,2.436053593179049806e-03,3.654080389768574882e-02,1.532858880000000090e-01,0.000000000000000000e+00,9.503725056000000393e+00
1.691117560824970496e+18,6.090133982947624515e-03,1.339829476248477480e-02,2.923264311814859767e-02,1.532858880000000090e-01,-1.532858880000000090e-01,9.657010944000001373e+00
1.691117560834970368e+18,6.090133982947624515e-03,1.218026796589524903e-02,2.557856272838002556e-02,-1.532858880000000090e-01,-1.532858880000000090e-01,9.657010944000001373e+00
1.691117560844970496e+18,0.000000000000000000e+00,1.705237515225335038e-02,2.923264311814859767e-02,1.532858880000000090e-01,-1.532858880000000090e-01,9.657010944000001373e+00
1.691117560854970368e+18,-1.218026796589524903e-03,1.096224116930572499e-02,3.045066991473812518e-02,1.532858880000000090e-01,-1.532858880000000090e-01,9.657010944000001373e+00
1.691117560864970496e+18,-1.705237515225335038e-02,7.308160779537149418e-03,2.923264311814859767e-02,3.065717760000000180e-01,0.000000000000000000e+00,9.657010944000001373e+00
1.691117560874970368e+18,4.872107186358099612e-03,7.308160779537149418e-03,2.557856272838002556e-02,-3.065717760000000180e-01,-1.532858880000000090e-01,9.657010944000001373e+00
1.691117560884970496e+18,7.308160779537149418e-03,1.461632155907429884e-02,2.679658952496954960e-02,3.065717760000000180e-01,0.000000000000000000e+00,9.503725056000000393e+00
1.691117560894970368e+18,4.872107186358099612e-03,3.654080389768574709e-03,3.288672350791717325e-02,0.000000000000000000e+00,0.000000000000000000e+00,9.503725056000000393e+00
1.691117560904970496e+18,0.000000000000000000e+00,6.090133982947624515e-03,2.314250913520097402e-02,3.065717760000000180e-01,1.532858880000000090e-01,9.810296832000000578e+00
1.691117560914970368e+18,7.308160779537149418e-03,9.744214372716199224e-03,3.288672350791717325e-02,3.065717760000000180e-01,-1.532858880000000090e-01,9.503725056000000393e+00
1.691117560924970496e+18,-7.308160779537149418e-03,7.308160779537149418e-03,3.288672350791717325e-02,3.065717760000000180e-01,-1.532858880000000090e-01,9.503725056000000393e+00
1.691117560934970368e+18,-2.436053593179049806e-03,7.308160779537149418e-03,2.923264311814859767e-02,1.532858880000000090e-01,-1.532858880000000090e-01,9.657010944000001373e+00
1.691117560944970496e+18,-2.436053593179049806e-03,8.526187576126675188e-03,2.557856272838002556e-02,6.131435520000000361e-01,-3.065717760000000180e-01,9.657010944000001373e+00
1.691117560954970368e+18,3.654080389768574709e-03,9.744214372716199224e-03,2.679658952496954960e-02,1.532858880000000090e-01,-1.532858880000000090e-01,9.350439168000001189e+00
1.691117560964970496e+18,0.000000000000000000e+00,1.339829476248477480e-02,3.532277710109622132e-02,1.532858880000000090e-01,-1.532858880000000090e-01,9.503725056000000393e+00
1.691117560974970624e+18,4.872107186358099612e-03,1.705237515225335038e-02,2.679658952496954960e-02,1.532858880000000090e-01,0.000000000000000000e+00,9.657010944000001373e+00
1.691117560984970496e+18,4.872107186358099612e-03,2.436053593179049806e-03,3.532277710109622132e-02,9.197153279999999986e-01,-1.532858880000000090e-01,9.657010944000001373e+00
1.691117560994970624e+18,1.218026796589524903e-03,1.461632155907429884e-02,3.532277710109622132e-02,1.532858880000000090e-01,-1.532858880000000090e-01,9.657010944000001373e+00
1.691117561004970496e+18,2.192448233861144999e-02,1.583434835566382287e-02,3.897685749086479690e-02,1.532858880000000090e-01,-1.532858880000000090e-01,9.503725056000000393e+00
1.691117561014970624e+18,1.218026796589524903e-03,2.436053593179049806e-03,2.679658952496954960e-02,1.532858880000000090e-01,-1.532858880000000090e-01,9.657010944000001373e+00
1.691117561024970496e+18,4.872107186358099612e-03,1.096224116930572499e-02,2.801461632155907364e-02,-7.664294400000000174e-01,0.000000000000000000e+00,9.657010944000001373e+00
1.691117561034970624e+18,-1.461632155907429884e-02,8.526187576126675188e-03,3.045066991473812518e-02,0.000000000000000000e+00,-1.532858880000000090e-01,9.657010944000001373e+00
1.691117561044970496e+18,2.436053593179049806e-03,7.308160779537149418e-03,3.410475030450670075e-02,1.532858880000000090e-01,-1.532858880000000090e-01,9.503725056000000393e+00
1.691117561054970624e+18,2.436053593179049806e-03,9.744214372716199224e-03,3.288672350791717325e-02,3.065717760000000180e-01,-1.532858880000000090e-01,9.657010944000001373e+00
1.691117561064970496e+18,1.218026796589524903e-03,1.339829476248477480e-02,3.897685749086479690e-02,1.532858880000000090e-01,-1.532858880000000090e-01,9.657010944000001373e+00
1.691117561074970368e+18,2.436053593179049806e-03,3.654080389768574709e-03,3.045066991473812518e-02,3.065717760000000180e-01,-1.532858880000000090e-01,9.503725056000000393e+00
1.691117561084970496e+18,4.872107186358099612e-03,9.744214372716199224e-03,3.654080389768574882e-02,1.532858880000000090e-01,0.000000000000000000e+00,9.657010944000001373e+00
1.691117561094970368e+18,7.308160779537149418e-03,6.090133982947624515e-03,3.897685749086479690e-02,1.532858880000000090e-01,-1.532858880000000090e-01,9.657010944000001373e+00
1.691117561104970496e+18,1.218026796589524903e-03,1.096224116930572499e-02,2.557856272838002556e-02,-3.065717760000000180e-01,0.000000000000000000e+00,9.503725056000000393e+00
1.691117561114970368e+18,1.218026796589524903e-03,1.096224116930572499e-02,3.166869671132764574e-02,1.532858880000000090e-01,-1.532858880000000090e-01,9.657010944000001373e+00
1.691117561124970496e+18,-1.218026796589524903e-03,1.096224116930572499e-02,2.923264311814859767e-02,3.065717760000000180e-01,-1.532858880000000090e-01,9.503725056000000393e+00
1.691117561134970368e+18,-1.218026796589524903e-03,7.308160779537149418e-03,3.532277710109622132e-02,1.532858880000000090e-01,0.000000000000000000e+00,9.503725056000000393e+00
1.691117561144970496e+18,9.744214372716199224e-03,9.744214372716199224e-03,3.288672350791717325e-02,0.000000000000000000e+00,-1.532858880000000090e-01,9.657010944000001373e+00
1.691117561154970368e+18,6.090133982947624515e-03,7.308160779537149418e-03,2.192448233861144999e-02,3.065717760000000180e-01,-1.532858880000000090e-01,9.657010944000001373e+00
1.691117561164970496e+18,1.218026796589524903e-03,6.090133982947624515e-03,3.166869671132764574e-02,3.065717760000000180e-01,-1.532858880000000090e-01,9.503725056000000393e+00
1.691117561174970368e+18,-3.654080389768574709e-03,1.705237515225335038e-02,3.410475030450670075e-02,0.000000000000000000e+00,0.000000000000000000e+00,9.503725056000000393e+00
1.691117561184970496e+18,2.436053593179049806e-03,1.339829476248477480e-02,3.166869671132764574e-02,1.532858880000000090e-01,0.000000000000000000e+00,9.503725056000000393e+00
1.691117561194970368e+18,-9.744214372716199224e-03,7.308160779537149418e-03,3.288672350791717325e-02,1.532858880000000090e-01,-1.532858880000000090e-01,9.657010944000001373e+00
1.691117561204970240e+18,-7.308160779537149418e-03,6.090133982947624515e-03,3.166869671132764574e-02,0.000000000000000000e+00,0.000000000000000000e+00,9.657010944000001373e+00
1.691117561214970624e+18,-3.654080389768574709e-03,1.218026796589524903e-02,3.166869671132764574e-02,0.000000000000000000e+00,-3.065717760000000180e-01,9.503725056000000393e+00
1.691117561224970496e+18,4.872107186358099612e-03,1.461632155907429884e-02,3.654080389768574882e-02,0.000000000000000000e+00,0.000000000000000000e+00,9.657010944000001373e+00
1.691117561234970624e+18,6.090133982947624515e-03,1.096224116930572499e-02,3.410475030450670075e-02,0.000000000000000000e+00,-1.532858880000000090e-01,9.503725056000000393e+00
1.691117561244970496e+18,-3.654080389768574709e-03,9.744214372716199224e-03,2.801461632155907364e-02,1.532858880000000090e-01,-1.532858880000000090e-01,9.657010944000001373e+00
1.691117561254970624e+18,-1.218026796589524903e-03,1.339829476248477480e-02,3.166869671132764574e-02,1.532858880000000090e-01,-1.532858880000000090e-01,9.657010944000001373e+00
1.691117561264970496e+18,2.436053593179049806e-03,8.526187576126675188e-03,3.410475030450670075e-02,1.532858880000000090e-01,-1.532858880000000090e-01,9.503725056000000393e+00
1.691117561274970624e+18,7.308160779537149418e-03,8.526187576126675188e-03,2.436053593179049806e-02,1.532858880000000090e-01,-1.532858880000000090e-01,9.657010944000001373e+00
1.691117561284970496e+18,-2.436053593179049806e-03,1.339829476248477480e-02,3.288672350791717325e-02,1.532858880000000090e-01,-1.532858880000000090e-01,9.657010944000001373e+00
1.691117561294970624e+18,4.872107186358099612e-03,6.090133982947624515e-03,4.141291108404385191e-02,1.532858880000000090e-01,-1.532858880000000090e-01,9.657010944000001373e+00
1.691117561304970496e+18,0.000000000000000000e+00,1.218026796589524903e-03,3.775883069427527633e-02,1.532858880000000090e-01,-1.532858880000000090e-01,9.503725056000000393e+00
1.691117561314970368e+18,4.872107186358099612e-03,1.339829476248477480e-02,3.532277710109622132e-02,3.065717760000000180e-01,-1.532858880000000090e-01,9.503725056000000393e+00
1.691117561324970496e+18,4.872107186358099612e-03,1.583434835566382287e-02,2.436053593179049806e-02,0.000000000000000000e+00,-1.532858880000000090e-01,9.503725056000000393e+00
1.691117561334970368e+18,-1.218026796589524903e-03,1.218026796589524903e-02,3.410475030450670075e-02,0.000000000000000000e+00,0.000000000000000000e+00,9.657010944000001373e+00
1.691117561344970496e+18,-2.436053593179049806e-03,6.090133982947624515e-03,3.166869671132764574e-02,0.000000000000000000e+00,-1.532858880000000090e-01,9.657010944000001373e+00
1.691117561354970368e+18,1.096224116930572499e-02,2.436053593179049806e-03,3.532277710109622132e-02,1.532858880000000090e-01,-1.532858880000000090e-01,9.657010944000001373e+00
1.691117561364970496e+18,7.308160779537149418e-03,9.744214372716199224e-03,3.532277710109622132e-02,4.598576639999999993e-01,-3.065717760000000180e-01,9.657010944000001373e+00
1.691117561374970368e+18,1.218026796589524903e-03,3.654080389768574709e-03,3.166869671132764574e-02,7.664294400000000174e-01,-3.065717760000000180e-01,9.503725056000000393e+00
1.691117561384970496e+18,-4.872107186358099612e-03,1.096224116930572499e-02,3.654080389768574882e-02,0.000000000000000000e+00,-1.532858880000000090e-01,9.657010944000001373e+00
1.691117561394970368e+18,-2.436053593179049806e-03,1.339829476248477480e-02,3.045066991473812518e-02,1.532858880000000090e-01,-1.532858880000000090e-01,9.503725056000000393e+00
1.691117561404970496e+18,3.654080389768574709e-03,1.096224116930572499e-02,3.410475030450670075e-02,1.532858880000000090e-01,-1.532858880000000090e-01,9.657010944000001373e+00
1.691117561414970368e+18,8.526187576126675188e-03,9.744214372716199224e-03,2.923264311814859767e-02,3.065717760000000180e-01,-1.532858880000000090e-01,9.657010944000001373e+00
1.691117561424970496e+18,4.872107186358099612e-03,1.705237515225335038e-02,2.679658952496954960e-02,1.532858880000000090e-01,-1.532858880000000090e-01,9.503725056000000393e+00
1.691117561434970368e+18,-3.654080389768574709e-03,9.744214372716199224e-03,4.506699147381242054e-02,1.532858880000000090e-01,-1.532858880000000090e-01,9.503725056000000393e+00
1.691117561444970496e+18,2.436053593179049806e-03,1.461632155907429884e-02,2.557856272838002556e-02,3.065717760000000180e-01,0.000000000000000000e+00,9.503725056000000393e+00
1.691117561454970368e+18,-2.436053593179049806e-03,6.090133982947624515e-03,3.410475030450670075e-02,3.065717760000000180e-01,0.000000000000000000e+00,9.503725056000000393e+00
1.691117561464970496e+18,1.096224116930572499e-02,1.339829476248477480e-02,2.679658952496954960e-02,0.000000000000000000e+00,-1.532858880000000090e-01,9.657010944000001373e+00
1.691117561474970624e+18,7.308160779537149418e-03,9.744214372716199224e-03,3.532277710109622132e-02,3.065717760000000180e-01,0.000000000000000000e+00,9.657010944000001373e+00
1.691117561484970496e+18,1.218026796589524903e-03,7.308160779537149418e-03,2.923264311814859767e-02,0.000000000000000000e+00,-1.532858880000000090e-01,9.503725056000000393e+00
1.691117561494970624e+18,3.654080389768574709e-03,1.705237515225335038e-02,2.314250913520097402e-02,-1.532858880000000090e-01,-1.532858880000000090e-01,9.350439168000001189e+00
1.691117561504970496e+18,8.526187576126675188e-03,6.090133982947624515e-03,3.410475030450670075e-02,1.532858880000000090e-01,-1.532858880000000090e-01,9.350439168000001189e+00
1.691117561514970624e+18,8.526187576126675188e-03,1.705237515225335038e-02,3.045066991473812518e-02,1.532858880000000090e-01,-1.532858880000000090e-01,9.657010944000001373e+00
1.691117561524970496e+18,-4.872107186358099612e-03,8.526187576126675188e-03,4.141291108404385191e-02,-1.532858880000000090e-01,0.000000000000000000e+00,9.657010944000001373e+00
1.691117561534970624e+18,7.308160779537149418e-03,1.218026796589524903e-02,4.141291108404385191e-02,1.532858880000000090e-01,-1.532858880000000090e-01,9.657010944000001373e+00
1.691117561544970496e+18,2.436053593179049806e-03,6.090133982947624515e-03,2.436053593179049806e-02,1.532858880000000090e-01,-1.532858880000000090e-01,9.503725056000000393e+00
1.691117561554970624e+18,6.090133982947624515e-03,6.090133982947624515e-03,3.410475030450670075e-02,0.000000000000000000e+00,0.000000000000000000e+00,9.657010944000001373e+00
1.691117561564970496e+18,2.436053593179049806e-03,6.090133982947624515e-03,3.775883069427527633e-02,1.532858880000000090e-01,-1.532858880000000090e-01,9.657010944000001373e+00
1.691117561574970368e+18,6.090133982947624515e-03,4.872107186358099612e-03,2.801461632155907364e-02,0.000000000000000000e+00,0.000000000000000000e+00,9.503725056000000393e+00
1.691117561584970496e+18,2.436053593179049806e-03,1.218026796589524903e-02,3.288672350791717325e-02,1.532858880000000090e-01,-1.532858880000000090e-01,9.503725056000000393e+00
1.691117561594970368e+18,-2.436053593179049806e-03,1.461632155907429884e-02,3.045066991473812518e-02,1.532858880000000090e-01,-1.532858880000000090e-01,9.657010944000001373e+00
1.691117561604970496e+18,-2.436053593179049806e-03,1.461632155907429884e-02,3.045066991473812518e-02,1.532858880000000090e-01,-1.532858880000000090e-01,9.657010944000001373e+00
1.691117561614970368e+18,-2.436053593179049806e-03,9.744214372716199224e-03,3.410475030450670075e-02,-1.532858880000000090e-01,-1.532858880000000090e-01,9.657010944000001373e+00
1.691117561624970496e+18,4.872107186358099612e-03,1.461632155907429884e-02,3.654080389768574882e-02,1.532858880000000090e-01,0.000000000000000000e+00,9.810296832000000578e+00
1.691117561634970368e+18,-6.090133982947624515e-03,1.339829476248477480e-02,3.166869671132764574e-02,3.065717760000000180e-01,-3.065717760000000180e-01,9.503725056000000393e+00
1.691117561644970496e+18,2.436053593179049806e-03,9.744214372716199224e-03,2.923264311814859767e-02,0.000000000000000000e+00,-1.532858880000000090e-01,9.503725056000000393e+00
1.691117561654970368e+18,-3.654080389768574709e-03,1.218026796589524903e-02,2.801461632155907364e-02,1.532858880000000090e-01,-1.532858880000000090e-01,9.503725056000000393e+00
1.691117561664970496e+18,3.654080389768574709e-03,6.090133982947624515e-03,3.288672350791717325e-02,-1.532858880000000090e-01,-1.532858880000000090e-01,9.503725056000000393e+00
1.691117561674970368e+18,-3.654080389768574709e-03,7.308160779537149418e-03,3.654080389768574882e-02,1.532858880000000090e-01,-1.532858880000000090e-01,9.657010944000001373e+00
1.691117561684970496e+18,1.461632155907429884e-02,1.096224116930572499e-02,3.045066991473812518e-02,3.065717760000000180e-01,-1.532858880000000090e-01,9.503725056000000393e+00
1.691117561694970368e+18,2.436053593179049806e-03,1.096224116930572499e-02,4.141291108404385191e-02,1.532858880000000090e-01,-1.532858880000000090e-01,9.657010944000001373e+00
1.691117561704970240e+18,-9.744214372716199224e-03,1.583434835566382287e-02,2.801461632155907364e-02,3.065717760000000180e-01,-1.532858880000000090e-01,9.503725056000000393e+00
1.691117561714970624e+18,2.436053593179049806e-03,9.744214372716199224e-03,3.288672350791717325e-02,3.065717760000000180e-01,-1.532858880000000090e-01,9.657010944000001373e+00
1.691117561724970496e+18,-2.436053593179049806e-03,1.339829476248477480e-02,2.557856272838002556e-02,3.065717760000000180e-01,-1.532858880000000090e-01,9.657010944000001373e+00
1.691117561734970624e+18,8.526187576126675188e-03,7.308160779537149418e-03,3.410475030450670075e-02,3.065717760000000180e-01,-1.532858880000000090e-01,9.657010944000001373e+00
1.691117561744970496e+18,0.000000000000000000e+00,7.308160779537149418e-03,4.141291108404385191e-02,1.532858880000000090e-01,-1.532858880000000090e-01,9.657010944000001373e+00
1.691117561754970624e+18,4.872107186358099612e-03,1.218026796589524903e-02,3.654080389768574882e-02,1.532858880000000090e-01,-1.532858880000000090e-01,9.657010944000001373e+00
1.691117561764970496e+18,-1.218026796589524903e-03,1.096224116930572499e-02,2.436053593179049806e-02,3.065717760000000180e-01,-1.532858880000000090e-01,9.503725056000000393e+00
1.691117561774970624e+18,2.436053593179049806e-03,1.705237515225335038e-02,3.166869671132764574e-02,1.532858880000000090e-01,-1.532858880000000090e-01,9.503725056000000393e+00
1.691117561784970496e+18,-1.218026796589524903e-03,1.827040194884287441e-02,3.166869671132764574e-02,3.065717760000000180e-01,0.000000000000000000e+00,9.503725056000000393e+00
1.691117561794970624e+18,4.872107186358099612e-03,7.308160779537149418e-03,2.557856272838002556e-02,1.532858880000000090e-01,-1.532858880000000090e-01,9.503725056000000393e+00
1.691117561804970496e+18,1.218026796589524903e-03,7.308160779537149418e-03,3.410475030450670075e-02,0.000000000000000000e+00,-1.532858880000000090e-01,9.503725056000000393e+00
1.691117561814970368e+18,-1.218026796589524903e-02,8.526187576126675188e-03,3.166869671132764574e-02,1.532858880000000090e-01,-1.532858880000000090e-01,9.503725056000000393e+00
1.691117561824970496e+18,6.090133982947624515e-03,1.339829476248477480e-02,2.923264311814859767e-02,0.000000000000000000e+00,-1.532858880000000090e-01,9.503725056000000393e+00
1.691117561834970368e+18,-1.096224116930572499e-02,9.744214372716199224e-03,3.410475030450670075e-02,1.532858880000000090e-01,0.000000000000000000e+00,9.657010944000001373e+00
1.691117561844970496e+18,7.308160779537149418e-03,1.461632155907429884e-02,3.532277710109622132e-02,1.532858880000000090e-01,-1.532858880000000090e-01,9.503725056000000393e+00
1.691117561854970368e+18,-4.872107186358099612e-03,4.872107186358099612e-03,3.166869671132764574e-02,3.065717760000000180e-01,0.000000000000000000e+00,9.503725056000000393e+00
1.691117561864970496e+18,3.654080389768574709e-03,2.436053593179049806e-03,3.654080389768574882e-02,1.532858880000000090e-01,-1.532858880000000090e-01,9.503725056000000393e+00
1.691117561874970368e+18,3.654080389768574709e-03,1.096224116930572499e-02,2.679658952496954960e-02,4.598576639999999993e-01,0.000000000000000000e+00,9.503725056000000393e+00
1.691117561884970496e+18,-3.654080389768574709e-03,8.526187576126675188e-03,3.654080389768574882e-02,1.532858880000000090e-01,0.000000000000000000e+00,9.503725056000000393e+00
1.691117561894970368e+18,0.000000000000000000e+00,4.872107186358099612e-03,3.045066991473812518e-02,3.065717760000000180e-01,-1.532858880000000090e-01,9.657010944000001373e+00
1.691117561904970496e+18,0.000000000000000000e+00,6.090133982947624515e-03,2.923264311814859767e-02,0.000000000000000000e+00,0.000000000000000000e+00,9.657010944000001373e+00
1.691117561914970368e+18,7.308160779537149418e-03,1.218026796589524903e-02,3.654080389768574882e-02,1.532858880000000090e-01,-3.065717760000000180e-01,9.657010944000001373e+00
1.691117561924970496e+18,-3.654080389768574709e-03,1.096224116930572499e-02,3.775883069427527633e-02,1.532858880000000090e-01,-1.532858880000000090e-01,9.350439168000001189e+00
1.691117561934970368e+18,1.218026796589524903e-02,4.872107186358099612e-03,3.532277710109622132e-02,1.532858880000000090e-01,-1.532858880000000090e-01,9.503725056000000393e+00
1.691117561944970496e+18,3.654080389768574709e-03,9.744214372716199224e-03,3.288672350791717325e-02,1.532858880000000090e-01,-1.532858880000000090e-01,9.657010944000001373e+00
1.691117561954970368e+18,4.872107186358099612e-03,3.654080389768574709e-03,2.923264311814859767e-02,3.065717760000000180e-01,0.000000000000000000e+00,9.657010944000001373e+00
1.691117561964970496e+18,1.218026796589524903e-03,8.526187576126675188e-03,3.410475030450670075e-02,1.532858880000000090e-01,-1.532858880000000090e-01,9.657010944000001373e+00
1.691117561974970624e+18,3.654080389768574709e-03,1.339829476248477480e-02,2.314250913520097402e-02,3.065717760000000180e-01,-1.532858880000000090e-01,9.503725056000000393e+00
1.691117561984970496e+18,-6.090133982947624515e-03,1.218026796589524903e-02,2.679658952496954960e-02,1.532858880000000090e-01,-1.532858880000000090e-01,9.657010944000001373e+00
1.691117561994970624e+18,9.744214372716199224e-03,8.526187576126675188e-03,3.045066991473812518e-02,3.065717760000000180e-01,0.000000000000000000e+00,9.503725056000000393e+00
1.691117562004970496e+18,1.218026796589524903e-03,6.090133982947624515e-03,3.532277710109622132e-02,1.532858880000000090e-01,1.532858880000000090e-01,9.657010944000001373e+00
1.691117562014970624e+18,-2.436053593179049806e-03,1.583434835566382287e-02,3.288672350791717325e-02,1.532858880000000090e-01,-1.532858880000000090e-01,9.503725056000000393e+00
1.691117562024970496e+18,1.218026796589524903e-03,1.705237515225335038e-02,2.923264311814859767e-02,1.532858880000000090e-01,0.000000000000000000e+00,9.810296832000000578e+00
1.691117562034970624e+18,-1.218026796589524903e-03,1.339829476248477480e-02,2.923264311814859767e-02,1.532858880000000090e-01,-1.532858880000000090e-01,9.503725056000000393e+00
1.691117562044970496e+18,-3.654080389768574709e-03,7.308160779537149418e-03,3.045066991473812518e-02,1.532858880000000090e-01,-1.532858880000000090e-01,9.657010944000001373e+00
1.691117562054970624e+18,-6.090133982947624515e-03,7.308160779537149418e-03,3.775883069427527633e-02,0.000000000000000000e+00,-1.532858880000000090e-01,9.657010944000001373e+00
1.691117562064970496e+18,4.872107186358099612e-03,1.096224116930572499e-02,2.801461632155907364e-02,7.664294400000000174e-01,-1.532858880000000090e-01,9.810296832000000578e+00
1.691117562074970368e+18,1.218026796589524903e-03,1.218026796589524903e-02,2.923264311814859767e-02,1.532858880000000090e-01,-1.532858880000000090e-01,9.503725056000000393e+00
1.691117562084970496e+18,8.526187576126675188e-03,8.526187576126675188e-03,2.436053593179049806e-02,3.065717760000000180e-01,-1.532858880000000090e-01,9.503725056000000393e+00
1.691117562094970368e+18,0.000000000000000000e+00,9.744214372716199224e-03,4.141291108404385191e-02,1.532858880000000090e-01,0.000000000000000000e+00,9.657010944000001373e+00
1.691117562104970496e+18,0.000000000000000000e+00,1.096224116930572499e-02,4.019488428745432440e-02,-7.664294400000000174e-01,-1.532858880000000090e-01,9.657010944000001373e+00
1.691117562114970368e+18,0.000000000000000000e+00,4.872107186358099612e-03,3.045066991473812518e-02,1.532858880000000090e-01,0.000000000000000000e+00,9.503725056000000393e+00
1.691117562124970496e+18,4.872107186358099612e-03,1.948842874543239845e-02,2.679658952496954960e-02,3.065717760000000180e-01,-3.065717760000000180e-01,9.657010944000001373e+00
1.691117562134970368e+18,-2.436053593179049806e-03,9.744214372716199224e-03,2.557856272838002556e-02,1.532858880000000090e-01,0.000000000000000000e+00,9.503725056000000393e+00
1.691117562144970496e+18,-6.090133982947624515e-03,9.744214372716199224e-03,3.166869671132764574e-02,0.000000000000000000e+00,-3.065717760000000180e-01,9.503725056000000393e+00
1.691117562154970368e+18,-7.308160779537149418e-03,0.000000000000000000e+00,4.019488428745432440e-02,1.532858880000000090e-01,-1.532858880000000090e-01,9.503725056000000393e+00
1.691117562164970496e+18,0.000000000000000000e+00,7.308160779537149418e-03,3.410475030450670075e-02,1.532858880000000090e-01,-1.532858880000000090e-01,9.503725056000000393e+00
1.691117562174970368e+18,2.436053593179049806e-03,1.461632155907429884e-02,3.532277710109622132e-02,1.532858880000000090e-01,0.000000000000000000e+00,9.503725056000000393e+00
1.691117562184970496e+18,-1.218026796589524903e-03,4.872107186358099612e-03,3.654080389768574882e-02,3.065717760000000180e-01,-1.532858880000000090e-01,9.503725056000000393e+00
1.691117562194970368e+18,-2.436053593179049806e-03,1.339829476248477480e-02,3.410475030450670075e-02,1.532858880000000090e-01,-1.532858880000000090e-01,9.503725056000000393e+00
1.691117562204970240e+18,-3.654080389768574709e-03,7.308160779537149418e-03,3.410475030450670075e-02,3.065717760000000180e-01,-1.532858880000000090e-01,9.657010944000001373e+00
1.691117562214970624e+18,6.090133982947624515e-03,7.308160779537149418e-03,2.557856272838002556e-02,-1.532858880000000090e-01,-1.532858880000000090e-01,9.503725056000000393e+00
1.691117562224970496e+18,-1.218026796589524903e-03,7.308160779537149418e-03,2.923264311814859767e-02,0.000000000000000000e+00,-1.532858880000000090e-01,9.657010944000001373e+00
1.691117562234970624e+18,-9.744214372716199224e-03,1.583434835566382287e-02,3.288672350791717325e-02,1.532858880000000090e-01,-1.532858880000000090e-01,9.657010944000001373e+00
1.691117562244970496e+18,1.218026796589524903e-02,7.308160779537149418e-03,3.045066991473812518e-02,1.532858880000000090e-01,-1.532858880000000090e-01,9.503725056000000393e+00
1.691117562254970624e+18,-1.218026796589524903e-03,1.339829476248477480e-02,3.288672350791717325e-02,3.065717760000000180e-01,0.000000000000000000e+00,9.657010944000001373e+00
1.691117562264970496e+18,6.090133982947624515e-03,1.218026796589524903e-03,3.775883069427527633e-02,0.000000000000000000e+00,-1.532858880000000090e-01,9.657010944000001373e+00
1.691117562274970624e+18,-7.308160779537149418e-03,4.872107186358099612e-03,3.410475030450670075e-02,1.532858880000000090e-01,-1.532858880000000090e-01,9.503725056000000393e+00
1.691117562284970496e+18,1.218026796589524903e-03,2.436053593179049806e-03,3.654080389768574882e-02,1.532858880000000090e-01,-3.065717760000000180e-01,9.657010944000001373e+00
1.691117562294970624e+18,1.218026796589524903e-03,6.090133982947624515e-03,3.288672350791717325e-02,3.065717760000000180e-01,0.000000000000000000e+00,9.657010944000001373e+00
1.691117562304970496e+18,4.872107186358099612e-03,4.872107186358099612e-03,3.166869671132764574e-02,3.065717760000000180e-01,-1.532858880000000090e-01,9.657010944000001373e+00
1.691117562314970368e+18,-7.308160779537149418e-03,1.096224116930572499e-02,3.045066991473812518e-02,0.000000000000000000e+00,-1.532858880000000090e-01,9.657010944000001373e+00
1.691117562324970496e+18,8.526187576126675188e-03,7.308160779537149418e-03,3.045066991473812518e-02,0.000000000000000000e+00,0.000000000000000000e+00,9.657010944000001373e+00
1.691117562334970368e+18,3.654080389768574709e-03,1.218026796589524903e-02,2.557856272838002556e-02,0.000000000000000000e+00,0.000000000000000000e+00,9.657010944000001373e+00
1.691117562344970496e+18,-3.654080389768574709e-03,9.744214372716199224e-03,2.436053593179049806e-02,3.065717760000000180e-01,-1.532858880000000090e-01,9.657010944000001373e+00
1.691117562354970368e+18,4.872107186358099612e-03,1.218026796589524903e-02,2.557856272838002556e-02,0.000000000000000000e+00,-1.532858880000000090e-01,9.503725056000000393e+00
1.691117562364970496e+18,2.436053593179049806e-03,1.461632155907429884e-02,3.045066991473812518e-02,1.532858880000000090e-01,0.000000000000000000e+00,9.503725056000000393e+00
1.691117562374970368e+18,9.744214372716199224e-03,6.090133982947624515e-03,3.410475030450670075e-02,0.000000000000000000e+00,-1.532858880000000090e-01,9.503725056000000393e+00
1.691117562384970496e+18,-1.218026796589524903e-03,1.461632155907429884e-02,3.166869671132764574e-02,1.532858880000000090e-01,-1.532858880000000090e-01,9.503725056000000393e+00
1.691117562394970368e+18,1.218026796589524903e-02,1.096224116930572499e-02,2.557856272838002556e-02,1.532858880000000090e-01,0.000000000000000000e+00,9.503725056000000393e+00
1.691117562404970496e+18,0.000000000000000000e+00,6.090133982947624515e-03,3.045066991473812518e-02,0.000000000000000000e+00,-1.532858880000000090e-01,9.657010944000001373e+00
1.691117562414970368e+18,6.090133982947624515e-03,1.218026796589524903e-02,3.410475030450670075e-02,1.532858880000000090e-01,-1.532858880000000090e-01,9.657010944000001373e+00
1.691117562424970496e+18,7.308160779537149418e-03,6.090133982947624515e-03,3.288672350791717325e-02,0.000000000000000000e+00,-1.532858880000000090e-01,9.503725056000000393e+00
1.691117562434970368e+18,4.872107186358099612e-03,6.090133982947624515e-03,2.436053593179049806e-02,1.532858880000000090e-01,-3.065717760000000180e-01,9.657010944000001373e+00
1.691117562444970496e+18,2.436053593179049806e-03,1.461632155907429884e-02,2.801461632155907364e-02,1.532858880000000090e-01,-1.532858880000000090e-01,9.657010944000001373e+00
1.691117562454970368e+18,-9.744214372716199224e-03,7.308160779537149418e-03,3.410475030450670075e-02,3.065717760000000180e-01,-1.532858880000000090e-01,9.503725056000000393e+00
1.691117562464970496e+18,6.090133982947624515e-03,4.872107186358099612e-03,3.897685749086479690e-02,0.000000000000000000e+00,-1.532858880000000090e-01,9.503725056000000393e+00
1.691117562474970624e+18,7.308160779537149418e-03,1.218026796589524903e-02,2.436053593179049806e-02,1.532858880000000090e-01,-1.532858880000000090e-01,9.503725056000000393e+00
1.691117562484970496e+18,-1.218026796589524903e-03,1.096224116930572499e-02,3.532277710109622132e-02,4.598576639999999993e-01,-1.532858880000000090e-01,9.503725056000000393e+00
1.691117562494970624e+18,3.654080389768574709e-03,8.526187576126675188e-03,2.679658952496954960e-02,3.065717760000000180e-01,0.000000000000000000e+00,9.503725056000000393e+00
1.691117562504970496e+18,0.000000000000000000e+00,7.308160779537149418e-03,3.166869671132764574e-02,1.532858880000000090e-01,-1.532858880000000090e-01,9.657010944000001373e+00
1.691117562514970624e+18,6.090133982947624515e-03,6.090133982947624515e-03,3.654080389768574882e-02,0.000000000000000000e+00,-1.532858880000000090e-01,9.657010944000001373e+00
1.691117562524970496e+18,4.872107186358099612e-03,7.308160779537149418e-03,2.923264311814859767e-02,7.664294400000000174e-01,0.000000000000000000e+00,9.503725056000000393e+00
1.691117562534970624e+18,-6.090133982947624515e-03,1.461632155907429884e-02,2.436053593179049806e-02,1.532858880000000090e-01,-1.532858880000000090e-01,9.503725056000000393e+00
1.691117562544970496e+18,-6.090133982947624515e-03,3.654080389768574709e-03,2.801461632155907364e-02,1.532858880000000090e-01,-1.532858880000000090e-01,9.503725056000000393e+00
1.691117562554970624e+18,1.218026796589524903e-03,1.096224116930572499e-02,3.654080389768574882e-02,1.532858880000000090e-01,-1.532858880000000090e-01,9.657010944000001373e+00
1.691117562564970496e+18,1.461632155907429884e-02,1.218026796589524903e-02,3.775883069427527633e-02,1.532858880000000090e-01,-1.532858880000000090e-01,9.657010944000001373e+00
1.691117562574970368e+18,-7.308160779537149418e-03,1.339829476248477480e-02,3.045066991473812518e-02,3.065717760000000180e-01,-1.532858880000000090e-01,9.503725056000000393e+00
1.691117562584970496e+18,-6.090133982947624515e-03,6.090133982947624515e-03,3.410475030450670075e-02,3.065717760000000180e-01,-1.532858880000000090e-01,9.503725056000000393e+00
1.691117562594970368e+18,2.436053593179049806e-03,1.096224116930572499e-02,2.801461632155907364e-02,0.000000000000000000e+00,-1.532858880000000090e-01,9.503725056000000393e+00
1.691117562604970496e+18,3.654080389768574709e-03,1.583434835566382287e-02,3.410475030450670075e-02,6.131435520000000361e-01,-1.532858880000000090e-01,9.810296832000000578e+00
1.691117562614970368e+18,1.096224116930572499e-02,1.583434835566382287e-02,3.045066991473812518e-02,0.000000000000000000e+00,-1.532858880000000090e-01,9.503725056000000393e+00
1.691117562624970496e+18,-4.872107186358099612e-03,7.308160779537149418e-03,3.166869671132764574e-02,0.000000000000000000e+00,-1.532858880000000090e-01,9.503725056000000393e+00
1.691117562634970368e+18,-4.872107186358099612e-03,6.090133982947624515e-03,3.288672350791717325e-02,-1.532858880000000090e-01,0.000000000000000000e+00,9.503725056000000393e+00
1.691117562644970496e+18,-4.872107186358099612e-03,8.526187576126675188e-03,3.410475030450670075e-02,0.000000000000000000e+00,0.000000000000000000e+00,9.503725056000000393e+00
1.691117562654970368e+18,-1.218026796589524903e-03,1.096224116930572499e-02,2.923264311814859767e-02,0.000000000000000000e+00,-1.532858880000000090e-01,9.657010944000001373e+00
1.691117562664970496e+18,6.090133982947624515e-03,6.090133982947624515e-03,3.775883069427527633e-02,0.000000000000000000e+00,-1.532858880000000090e-01,9.503725056000000393e+00
1.691117562674970368e+18,0.000000000000000000e+00,1.218026796589524903e-02,2.923264311814859767e-02,1.532858880000000090e-01,-1.532858880000000090e-01,9.503725056000000393e+00
1.691117562684970496e+18,-3.654080389768574709e-03,1.218026796589524903e-02,2.801461632155907364e-02,3.065717760000000180e-01,-1.532858880000000090e-01,9.657010944000001373e+00
1.691117562694970368e+18,0.000000000000000000e+00,4.872107186358099612e-03,3.532277710109622132e-02,3.065717760000000180e-01,-1.532858880000000090e-01,9.657010944000001373e+00
1.691117562704970240e+18,7.308160779537149418e-03,1.096224116930572499e-02,3.288672350791717325e-02,1.532858880000000090e-01,-1.532858880000000090e-01,9.503725056000000393e+00
1.691117562714970624e+18,-2.436053593179049806e-03,1.705237515225335038e-02,2.923264311814859767e-02,1.532858880000000090e-01,-1.532858880000000090e-01,9.503725056000000393e+00
1.691117562724970496e+18,0.000000000000000000e+00,8.526187576126675188e-03,3.045066991473812518e-02,0.000000000000000000e+00,0.000000000000000000e+00,9.503725056000000393e+00
1.691117562734970624e+18,0.000000000000000000e+00,1.461632155907429884e-02,3.045066991473812518e-02,0.000000000000000000e+00,-1.532858880000000090e-01,9.503725056000000393e+00
1.691117562744970496e+18,-4.872107186358099612e-03,1.461632155907429884e-02,2.801461632155907364e-02,1.532858880000000090e-01,0.000000000000000000e+00,9.503725056000000393e+00
1.691117562754970624e+18,-6.090133982947624515e-03,9.744214372716199224e-03,3.532277710109622132e-02,1.532858880000000090e-01,-1.532858880000000090e-01,9.657010944000001373e+00
1.691117562764970496e+18,-1.218026796589524903e-03,1.218026796589524903e-02,3.045066991473812518e-02,3.065717760000000180e-01,0.000000000000000000e+00,9.503725056000000393e+00
1.691117562774970624e+18,1.218026796589524903e-03,1.218026796589524903e-02,3.532277710109622132e-02,1.532858880000000090e-01,-1.532858880000000090e-01,9.503725056000000393e+00
1.691117562784970496e+18,2.436053593179049806e-03,8.526187576126675188e-03,4.019488428745432440e-02,1.532858880000000090e-01,-1.532858880000000090e-01,9.503725056000000393e+00
1.691117562794970624e+18,-1.218026796589524903e-03,9.744214372716199224e-03,3.045066991473812518e-02,1.532858880000000090e-01,-1.532858880000000090e-01,9.503725056000000393e+00
1.691117562804970496e+18,-6.090133982947624515e-03,1.339829476248477480e-02,3.532277710109622132e-02,1.532858880000000090e-01,0.000000000000000000e+00,9.657010944000001373e+00
1.691117562814970368e+18,1.096224116930572499e-02,1.461632155907429884e-02,2.923264311814859767e-02,3.065717760000000180e-01,0.000000000000000000e+00,9.657010944000001373e+00
1.691117562824970496e+18,-9.744214372716199224e-03,1.827040194884287441e-02,2.679658952496954960e-02,4.598576639999999993e-01,0.000000000000000000e+00,9.657010944000001373e+00
1.691117562834970368e+18,3.654080389768574709e-03,2.070645554202192595e-02,3.166869671132764574e-02,4.598576639999999993e-01,-3.065717760000000180e-01,9.503725056000000393e+00
1.691117562844970496e+18,2.436053593179049806e-03,1.461632155907429884e-02,3.897685749086479690e-02,4.598576639999999993e-01,-1.532858880000000090e-01,9.657010944000001373e+00
1.691117562854970368e+18,4.872107186358099612e-03,1.705237515225335038e-02,3.654080389768574882e-02,7.664294400000000174e-01,-1.532858880000000090e-01,9.657010944000001373e+00
1.691117562864970496e+18,6.090133982947624515e-03,1.827040194884287441e-02,3.654080389768574882e-02,4.598576639999999993e-01,-1.532858880000000090e-01,9.657010944000001373e+00
1.691117562874970368e+18,-2.436053593179049806e-03,1.827040194884287441e-02,3.410475030450670075e-02,1.532858880000000090e-01,1.532858880000000090e-01,9.810296832000000578e+00
1.691117562884970496e+18,0.000000000000000000e+00,2.801461632155907364e-02,4.506699147381242054e-02,6.131435520000000361e-01,-3.065717760000000180e-01,9.657010944000001373e+00
1.691117562894970368e+18,0.000000000000000000e+00,2.923264311814859767e-02,3.654080389768574882e-02,1.379572992000000164e+00,0.000000000000000000e+00,9.350439168000001189e+00
1.691117562904970496e+18,6.090133982947624515e-03,2.557856272838002556e-02,4.872107186358099612e-02,7.664294400000000174e-01,-1.532858880000000090e-01,9.810296832000000578e+00
1.691117562914970368e+18,-1.096224116930572499e-02,2.923264311814859767e-02,5.602923264311814727e-02,1.073001215999999980e+00,1.532858880000000090e-01,9.657010944000001373e+00
1.691117562924970496e+18,1.218026796589524903e-03,2.192448233861144999e-02,5.724725943970767478e-02,7.664294400000000174e-01,0.000000000000000000e+00,9.503725056000000393e+00
1.691117562934970368e+18,-1.339829476248477480e-02,2.801461632155907364e-02,6.333739342265529149e-02,9.197153279999999986e-01,-1.532858880000000090e-01,9.197153280000000208e+00
1.691117562944970496e+18,3.654080389768574709e-03,1.705237515225335038e-02,7.429963459196102515e-02,1.073001215999999980e+00,0.000000000000000000e+00,9.503725056000000393e+00
1.691117562954970368e+18,4.872107186358099612e-03,1.827040194884287441e-02,7.308160779537149765e-02,7.664294400000000174e-01,0.000000000000000000e+00,9.503725056000000393e+00
1.691117562964970496e+18,2.436053593179049806e-03,2.801461632155907364e-02,8.282582216808770381e-02,7.664294400000000174e-01,-1.532858880000000090e-01,9.503725056000000393e+00
1.691117562974970624e+18,0.000000000000000000e+00,1.461632155907429884e-02,8.282582216808770381e-02,7.664294400000000174e-01,0.000000000000000000e+00,9.503725056000000393e+00
1.691117562984970496e+18,-1.218026796589524903e-03,1.948842874543239845e-02,8.647990255785627245e-02,1.073001215999999980e+00,0.000000000000000000e+00,9.350439168000001189e+00
1.691117562994970624e+18,-2.436053593179049806e-03,1.096224116930572499e-02,9.135200974421436859e-02,1.073001215999999980e+00,0.000000000000000000e+00,9.350439168000001189e+00
1.691117563004970496e+18,-3.654080389768574709e-03,7.308160779537149418e-03,9.257003654080389610e-02,9.197153279999999986e-01,-1.532858880000000090e-01,9.503725056000000393e+00
1.691117563014970624e+18,3.654080389768574709e-03,8.526187576126675188e-03,1.047503045066991434e-01,9.197153279999999986e-01,0.000000000000000000e+00,9.503725056000000393e+00
1.691117563024970496e+18,1.218026796589524903e-03,6.090133982947624515e-03,1.084043848964677259e-01,1.226287104000000072e+00,-1.532858880000000090e-01,9.503725056000000393e+00
1.691117563034970624e+18,3.654080389768574709e-03,0.000000000000000000e+00,1.071863580998781984e-01,1.379572992000000164e+00,-3.065717760000000180e-01,9.350439168000001189e+00
1.691117563044970496e+18,1.218026796589524903e-03,-1.218026796589524903e-03,1.071863580998781984e-01,7.664294400000000174e-01,-1.532858880000000090e-01,9.657010944000001373e+00
1.691117563054970624e+18,8.526187576126675188e-03,-6.090133982947624515e-03,1.035322777101096159e-01,9.197153279999999986e-01,-1.532858880000000090e-01,9.810296832000000578e+00
1.691117563064970496e+18,-6.090133982947624515e-03,-1.218026796589524903e-03,9.866017052375151974e-02,9.197153279999999986e-01,-1.532858880000000090e-01,9.350439168000001189e+00
1.691117563074970368e+18,0.000000000000000000e+00,-8.526187576126675188e-03,9.744214372716199224e-02,9.197153279999999986e-01,0.000000000000000000e+00,9.350439168000001189e+00
1.691117563084970496e+18,3.654080389768574709e-03,-1.339829476248477480e-02,9.987819732034104725e-02,4.598576639999999993e-01,-1.532858880000000090e-01,9.350439168000001189e+00
1.691117563094970368e+18,1.218026796589524903e-03,-1.339829476248477480e-02,8.404384896467721744e-02,1.532858880000000090e-01,-1.532858880000000090e-01,9.350439168000001189e+00
1.691117563104970496e+18,3.654080389768574709e-03,-2.923264311814859767e-02,7.673568818514006629e-02,-1.532858880000000090e-01,0.000000000000000000e+00,9.657010944000001373e+00
1.691117563114970368e+18,0.000000000000000000e+00,-2.192448233861144999e-02,7.064555420219244264e-02,0.000000000000000000e+00,-1.532858880000000090e-01,9.503725056000000393e+00
1.691117563124970496e+18,-2.436053593179049806e-03,-2.070645554202192595e-02,7.917174177831912130e-02,0.000000000000000000e+00,-1.532858880000000090e-01,9.503725056000000393e+00
1.691117563134970368e+18,0.000000000000000000e+00,-2.923264311814859767e-02,6.577344701583434650e-02,-1.532858880000000035e+00,-6.131435520000000361e-01,9.197153280000000208e+00
1.691117563144970496e+18,7.308160779537149418e-03,-2.436053593179049806e-02,4.263093788063337247e-02,1.532858880000000090e-01,-6.131435520000000361e-01,9.503725056000000393e+00
1.691117563154970368e+18,-4.872107186358099612e-03,-4.506699147381242054e-02,2.436053593179049806e-02,-7.664294400000000174e-01,0.000000000000000000e+00,9.810296832000000578e+00
1.691117563164970496e+18,1.096224116930572499e-02,-4.506699147381242054e-02,1.705237515225335038e-02,-7.664294400000000174e-01,-1.532858880000000090e-01,9.810296832000000578e+00
1.691117563174970368e+18,8.526187576126675188e-03,-3.410475030450670075e-02,-1.218026796589524903e-03,-1.379572992000000164e+00,-4.598576639999999993e-01,9.350439168000001189e+00
1.691117563184970496e+18,6.090133982947624515e-03,-3.410475030450670075e-02,-2.923264311814859767e-02,-6.131435520000000361e-01,-3.065717760000000180e-01,9.503725056000000393e+00
1.691117563194970368e+18,1.096224116930572499e-02,-3.897685749086479690e-02,-4.263093788063337247e-02,-9.197153279999999986e-01,-4.598576639999999993e-01,9.657010944000001373e+00
1.691117563204970240e+18,9.744214372716199224e-03,-3.654080389768574882e-02,-5.968331303288672285e-02,-9.197153279999999986e-01,-3.065717760000000180e-01,9.657010944000001373e+00
1.691117563214970624e+18,7.308160779537149418e-03,-3.775883069427527633e-02,-6.211936662606577092e-02,-3.065717760000000180e-01,0.000000000000000000e+00,9.350439168000001189e+00
1.691117563224970496e+18,3.654080389768574709e-03,-2.801461632155907364e-02,-6.211936662606577092e-02,-1.226287104000000072e+00,0.000000000000000000e+00,9.810296832000000578e+00
1.691117563234970624e+18,7.308160779537149418e-03,-1.218026796589524903e-03,-8.038976857490864880e-02,-6.131435520000000361e-01,-1.532858880000000090e-01,9.350439168000001189e+00
1.691117563244970496e+18,1.583434835566382287e-02,1.218026796589524903e-03,-8.526187576126674494e-02,-4.598576639999999993e-01,-3.065717760000000180e-01,9.657010944000001373e+00
1.691117563254970624e+18,6.090133982947624515e-03,1.827040194884287441e-02,-8.891595615103532746e-02,-9.197153279999999986e-01,0.000000000000000000e+00,9.657010944000001373e+00
1.691117563264970496e+18,-1.218026796589524903e-03,1.705237515225335038e-02,-8.526187576126674494e-02,-9.197153279999999986e-01,0.000000000000000000e+00,9.657010944000001373e+00
1.691117563274970624e+18,8.526187576126675188e-03,4.019488428745432440e-02,-7.673568818514006629e-02,-4.598576639999999993e-01,0.000000000000000000e+00,9.503725056000000393e+00
1.691117563284970496e+18,-8.526187576126675188e-03,3.410475030450670075e-02,-7.429963459196102515e-02,-6.131435520000000361e-01,1.532858880000000090e-01,9.657010944000001373e+00
1.691117563294970624e+18,-1.218026796589524903e-02,4.384896467722289998e-02,-6.942752740560292901e-02,-1.226287104000000072e+00,0.000000000000000000e+00,9.350439168000001189e+00
1.691117563304970496e+18,-7.308160779537149418e-03,6.942752740560292901e-02,-6.577344701583434650e-02,-7.664294400000000174e-01,0.000000000000000000e+00,9.503725056000000393e+00
1.691117563314970368e+18,-1.096224116930572499e-02,5.359317904993909920e-02,-5.359317904993909920e-02,-7.664294400000000174e-01,0.000000000000000000e+00,9.657010944000001373e+00
1.691117563324970496e+18,-3.654080389768574709e-03,5.115712545676005113e-02,-4.141291108404385191e-02,-1.073001215999999980e+00,1.532858880000000090e-01,9.503725056000000393e+00
1.691117563334970368e+18,-2.070645554202192595e-02,3.532277710109622132e-02,-2.436053593179049806e-03,-9.197153279999999986e-01,1.532858880000000090e-01,9.810296832000000578e+00
1.691117563344970496e+18,-6.090133982947624515e-03,4.141291108404385191e-02,8.526187576126675188e-03,-7.664294400000000174e-01,3.065717760000000180e-01,9.657010944000001373e+00
1.691117563354970368e+18,-2.436053593179049806e-03,3.410475030450670075e-02,2.436053593179049806e-02,-4.598576639999999993e-01,3.065717760000000180e-01,9.350439168000001189e+00
1.691117563364970496e+18,-8.526187576126675188e-03,3.166869671132764574e-02,4.993909866017052362e-02,-4.598576639999999993e-01,0.000000000000000000e+00,9.503725056000000393e+00
1.691117563374970368e+18,-6.090133982947624515e-03,3.897685749086479690e-02,4.750304506699147555e-02,6.131435520000000361e-01,-1.532858880000000090e-01,9.657010944000001373e+00
1.691117563384970496e+18,-2.436053593179049806e-03,3.288672350791717325e-02,6.211936662606577092e-02,3.065717760000000180e-01,1.532858880000000090e-01,9.350439168000001189e+00
1.691117563394970368e+18,-3.654080389768574709e-03,3.045066991473812518e-02,8.404384896467721744e-02,1.532858880000000090e-01,1.532858880000000090e-01,9.657010944000001373e+00
1.691117563404970496e+18,-6.090133982947624515e-03,5.724725943970767478e-02,9.866017052375151974e-02,7.664294400000000174e-01,0.000000000000000000e+00,9.350439168000001189e+00
1.691117563414970368e+18,6.090133982947624515e-03,4.750304506699147555e-02,1.108404384896467670e-01,-2.759145984000000329e+00,1.532858880000000090e-01,1.011686860800000076e+01
1.691117563424970496e+18,2.436053593179049806e-03,4.628501827040194805e-02,1.071863580998781984e-01,-3.065717760000000180e-01,1.532858880000000090e-01,9.810296832000000578e+00
1.691117563434970368e+18,1.461632155907429884e-02,4.506699147381242054e-02,9.500609013398295111e-02,1.379572992000000164e+00,1.532858880000000090e-01,9.197153280000000208e+00
1.691117563444970496e+18,2.436053593179049806e-03,4.993909866017052362e-02,1.157125456760048771e-01,1.532858880000000035e+00,0.000000000000000000e+00,9.963582719999999782e+00
1.691117563454970368e+18,9.744214372716199224e-03,3.654080389768574882e-02,1.144945188794153496e-01,1.073001215999999980e+00,3.065717760000000180e-01,9.503725056000000393e+00
1.691117563464970496e+18,1.218026796589524903e-03,3.532277710109622132e-02,1.266747868453105830e-01,7.664294400000000174e-01,0.000000000000000000e+00,9.350439168000001189e+00
1.691117563474970624e+18,4.872107186358099612e-03,4.019488428745432440e-02,1.230207064555420282e-01,1.226287104000000072e+00,0.000000000000000000e+00,9.503725056000000393e+00
1.691117563484970496e+18,-8.526187576126675188e-03,3.410475030450670075e-02,1.364190012180268030e-01,1.073001215999999980e+00,0.000000000000000000e+00,9.350439168000001189e+00
1.691117563494970624e+18,1.218026796589524903e-03,3.045066991473812518e-02,1.437271619975639403e-01,3.065717760000000180e-01,-1.532858880000000090e-01,9.350439168000001189e+00
1.691117563504970496e+18,0.000000000000000000e+00,3.045066991473812518e-02,1.364190012180268030e-01,1.073001215999999980e+00,0.000000000000000000e+00,9.350439168000001189e+00
1.691117563514970624e+18,-6.090133982947624515e-03,4.872107186358099612e-03,1.388550548112058580e-01,9.197153279999999986e-01,0.000000000000000000e+00,9.197153280000000208e+00
1.691117563524970496e+18,-1.218026796589524903e-02,4.872107186358099612e-03,1.449451887941534678e-01,7.664294400000000174e-01,-1.532858880000000090e-01,9.503725056000000393e+00
1.691117563534970624e+18,-8.526187576126675188e-03,-6.090133982947624515e-03,1.400730816077953578e-01,1.686144768000000127e+00,-1.532858880000000090e-01,9.657010944000001373e+00
1.691117563544970496e+18,-2.436053593179049806e-03,-7.308160779537149418e-03,1.352009744214372755e-01,1.073001215999999980e+00,-1.532858880000000090e-01,9.503725056000000393e+00
1.691117563554970624e+18,-2.436053593179049806e-03,-7.308160779537149418e-03,1.266747868453105830e-01,1.226287104000000072e+00,-4.598576639999999993e-01,9.503725056000000393e+00
1.691117563564970496e+18,0.000000000000000000e+00,-1.218026796589524903e-02,1.120584652862362945e-01,1.686144768000000127e+00,-4.598576639999999993e-01,9.657010944000001373e+00
1.691117563574970368e+18,2.436053593179049806e-03,-3.654080389768574709e-03,1.035322777101096159e-01,1.073001215999999980e+00,-4.598576639999999993e-01,9.657010944000001373e+00
1.691117563584970496e+18,1.096224116930572499e-02,-7.308160779537149418e-03,8.038976857490864880e-02,1.532858880000000035e+00,-1.532858880000000090e-01,9.810296832000000578e+00
1.691117563594970368e+18,4.872107186358099612e-03,2.436053593179049806e-03,7.186358099878197014e-02,1.839430655999999997e+00,-3.065717760000000180e-01,9.350439168000001189e+00
1.691117563604970496e+18,8.526187576126675188e-03,-4.872107186358099612e-03,6.820950060901340151e-02,1.532858880000000035e+00,-3.065717760000000180e-01,9.810296832000000578e+00
1.691117563614970368e+18,9.744214372716199224e-03,3.654080389768574709e-03,6.455542021924481899e-02,1.532858880000000035e+00,-1.532858880000000090e-01,9.657010944000001373e+00
1.691117563624970496e+18,1.096224116930572499e-02,1.461632155907429884e-02,6.577344701583434650e-02,1.532858880000000035e+00,0.000000000000000000e+00,9.657010944000001373e+00
1.691117563634970368e+18,1.218026796589524903e-02,2.070645554202192595e-02,7.551766138855055266e-02,1.379572992000000164e+00,0.000000000000000000e+00,9.503725056000000393e+00
1.691117563644970496e+18,0.000000000000000000e+00,1.827040194884287441e-02,7.064555420219244264e-02,1.073001215999999980e+00,0.000000000000000000e+00,9.503725056000000393e+00
1.691117563654970368e+18,0.000000000000000000e+00,2.557856272838002556e-02,8.647990255785627245e-02,1.379572992000000164e+00,1.532858880000000090e-01,9.657010944000001373e+00
1.691117563664970496e+18,-2.436053593179049806e-03,2.314250913520097402e-02,9.744214372716199224e-02,9.197153279999999986e-01,3.065717760000000180e-01,9.657010944000001373e+00
1.691117563674970368e+18,2.436053593179049806e-03,2.557856272838002556e-02,1.157125456760048771e-01,1.226287104000000072e+00,1.532858880000000090e-01,9.350439168000001189e+00
1.691117563684970496e+18,2.436053593179049806e-03,1.948842874543239845e-02,1.230207064555420282e-01,1.992716544000000090e+00,-1.532858880000000090e-01,9.350439168000001189e+00
1.691117563694970368e+18,-9.744214372716199224e-03,1.339829476248477480e-02,1.242387332521315418e-01,1.226287104000000072e+00,0.000000000000000000e+00,9.503725056000000393e+00
1.691117563704970240e+18,1.218026796589524903e-03,1.339829476248477480e-02,1.291108404384896380e-01,1.073001215999999980e+00,0.000000000000000000e+00,9.503725056000000393e+00
1.691117563714970624e+18,-1.218026796589524903e-02,1.339829476248477480e-02,1.254567600487210832e-01,1.073001215999999980e+00,0.000000000000000000e+00,9.503725056000000393e+00
1.691117563724970496e+18,-4.872107186358099612e-03,3.654080389768574709e-03,1.339829476248477480e-01,1.226287104000000072e+00,0.000000000000000000e+00,9.503725056000000393e+00
1.691117563734970624e+18,-1.218026796589524903e-03,-6.090133982947624515e-03,1.473812423873325228e-01,1.073001215999999980e+00,-1.532858880000000090e-01,9.350439168000001189e+00
1.691117563744970496e+18,2.436053593179049806e-03,-2.436053593179049806e-03,1.571254567600487151e-01,1.379572992000000164e+00,0.000000000000000000e+00,9.350439168000001189e+00
1.691117563754970624e+18,4.872107186358099612e-03,-7.308160779537149418e-03,1.461632155907429953e-01,1.226287104000000072e+00,-1.532858880000000090e-01,9.657010944000001373e+00
1.691117563764970496e+18,2.436053593179049806e-03,-9.744214372716199224e-03,1.485992691839220503e-01,7.664294400000000174e-01,-3.065717760000000180e-01,9.657010944000001373e+00
1.691117563774970624e+18,6.090133982947624515e-03,-6.090133982947624515e-03,1.449451887941534678e-01,1.226287104000000072e+00,-1.532858880000000090e-01,9.503725056000000393e+00
1.691117563784970496e+18,1.583434835566382287e-02,-1.461632155907429884e-02,1.534713763702801326e-01,1.226287104000000072e+00,0.000000000000000000e+00,9.503725056000000393e+00
1.691117563794970624e+18,6.090133982947624515e-03,-1.339829476248477480e-02,1.510353227771011053e-01,1.532858880000000035e+00,-1.532858880000000090e-01,9.503725056000000393e+00
1.691117563804970496e+18,1.827040194884287441e-02,-1.583434835566382287e-02,1.534713763702801326e-01,1.073001215999999980e+00,0.000000000000000000e+00,9.503725056000000393e+00
1.691117563814970368e+18,1.218026796589524903e-02,7.308160779537149418e-03,1.607795371498172976e-01,1.686144768000000127e+00,-1.532858880000000090e-01,9.810296832000000578e+00
1.691117563824970496e+18,0.000000000000000000e+00,1.218026796589524903e-03,1.510353227771011053e-01,1.379572992000000164e+00,-1.532858880000000090e-01,9.810296832000000578e+00
1.691117563834970368e+18,9.744214372716199224e-03,7.308160779537149418e-03,1.437271619975639403e-01,1.532858880000000035e+00,0.000000000000000000e+00,9.657010944000001373e+00
1.691117563844970496e+18,3.654080389768574709e-03,3.654080389768574709e-03,1.412911084043848853e-01,1.532858880000000035e+00,1.532858880000000090e-01,9.657010944000001373e+00
1.691117563854970368e+18,1.218026796589524903e-03,1.218026796589524903e-03,1.510353227771011053e-01,1.532858880000000035e+00,0.000000000000000000e+00,9.503725056000000393e+00
1.691117563864970496e+18,-3.654080389768574709e-03,-3.654080389768574709e-03,1.522533495736906328e-01,1.073001215999999980e+00,1.532858880000000090e-01,9.503725056000000393e+00
1.691117563874970368e+18,-2.436053593179049806e-03,6.090133982947624515e-03,1.656516443361754076e-01,9.197153279999999986e-01,-1.532858880000000090e-01,9.810296832000000578e+00
1.691117563884970496e+18,7.308160779537149418e-03,2.192448233861144999e-02,1.607795371498172976e-01,1.379572992000000164e+00,-1.532858880000000090e-01,9.657010944000001373e+00
1.691117563894970368e+18,6.090133982947624515e-03,2.070645554202192595e-02,1.522533495736906328e-01,6.131435520000000361e-01,0.000000000000000000e+00,9.657010944000001373e+00
1.691117563904970496e+18,-9.744214372716199224e-03,1.218026796589524903e-02,1.522533495736906328e-01,4.598576639999999993e-01,-1.532858880000000090e-01,9.350439168000001189e+00
1.691117563914970368e+18,-7.308160779537149418e-03,1.827040194884287441e-02,1.473812423873325228e-01,7.664294400000000174e-01,1.532858880000000090e-01,9.503725056000000393e+00
1.691117563924970496e+18,-1.705237515225335038e-02,1.583434835566382287e-02,1.461632155907429953e-01,4.598576639999999993e-01,1.532858880000000090e-01,9.503725056000000393e+00
1.691117563934970368e+18,-1.461632155907429884e-02,1.339829476248477480e-02,1.412911084043848853e-01,6.131435520000000361e-01,0.000000000000000000e+00,9.657010944000001373e+00
1.691117563944970496e+18,1.218026796589524903e-03,1.705237515225335038e-02,1.461632155907429953e-01,7.664294400000000174e-01,-3.065717760000000180e-01,9.350439168000001189e+00
1.691117563954970368e+18,-2.436053593179049806e-03,-1.218026796589524903e-03,1.412911084043848853e-01,1.379572992000000164e+00,-1.532858880000000090e-01,9.350439168000001189e+00
1.691117563964970496e+18,1.218026796589524903e-03,0.000000000000000000e+00,1.303288672350791655e-01,6.131435520000000361e-01,-1.532858880000000090e-01,9.503725056000000393e+00
1.691117563974970624e+18,-8.526187576126675188e-03,-1.218026796589524903e-03,1.193666260657734457e-01,7.664294400000000174e-01,-3.065717760000000180e-01,9.657010944000001373e+00
1.691117563984970496e+18,0.000000000000000000e+00,1.705237515225335038e-02,1.059683313032886709e-01,9.197153279999999986e-01,-1.532858880000000090e-01,9.503725056000000393e+00
1.691117563994970624e+18,-3.654080389768574709e-03,-4.872107186358099612e-03,1.023142509135201023e-01,0.000000000000000000e+00,-3.065717760000000180e-01,9.043867392000001004e+00
1.691117564004970496e+18,6.090133982947624515e-03,-1.096224116930572499e-02,8.038976857490864880e-02,6.131435520000000361e-01,-3.065717760000000180e-01,8.890581504000000024e+00
1.691117564014970624e+18,8.526187576126675188e-03,-8.526187576126675188e-03,7.795371498172959379e-02,-6.131435520000000361e-01,-1.532858880000000090e-01,1.027015449599999997e+01
1.691117564024970496e+18,1.339829476248477480e-02,4.872107186358099612e-03,5.846528623629719534e-02,1.073001215999999980e+00,-4.598576639999999993e-01,1.027015449599999997e+01
1.691117564034970624e+18,1.461632155907429884e-02,2.436053593179049806e-03,4.993909866017052362e-02,-3.065717760000000180e-01,-6.131435520000000361e-01,9.350439168000001189e+00
1.691117564044970496e+18,9.744214372716199224e-03,-1.339829476248477480e-02,1.705237515225335038e-02,4.598576639999999993e-01,-3.065717760000000180e-01,9.197153280000000208e+00
1.691117564054970624e+18,9.744214372716199224e-03,-1.096224116930572499e-02,9.744214372716199224e-03,1.532858880000000090e-01,-4.598576639999999993e-01,9.963582719999999782e+00
1.691117564064970496e+18,7.308160779537149418e-03,0.000000000000000000e+00,-1.461632155907429884e-02,0.000000000000000000e+00,-4.598576639999999993e-01,9.963582719999999782e+00
1.691117564074970368e+18,7.308160779537149418e-03,2.192448233861144999e-02,-3.045066991473812518e-02,1.532858880000000090e-01,-4.598576639999999993e-01,9.350439168000001189e+00
1.691117564084970496e+18,2.436053593179049806e-03,-6.090133982947624515e-03,-4.384896467722289998e-02,1.532858880000000090e-01,-3.065717760000000180e-01,9.043867392000001004e+00
1.691117564094970368e+18,7.308160779537149418e-03,1.461632155907429884e-02,-4.019488428745432440e-02,7.664294400000000174e-01,-6.131435520000000361e-01,9.657010944000001373e+00
1.691117564104970496e+18,-8.526187576126675188e-03,-1.583434835566382287e-02,-3.532277710109622132e-02,-7.664294400000000174e-01,-3.065717760000000180e-01,9.963582719999999782e+00
1.691117564114970368e+18,-1.218026796589524903e-03,-2.314250913520097402e-02,-5.237515225334957170e-02,1.532858880000000090e-01,1.532858880000000090e-01,9.503725056000000393e+00
1.691117564124970496e+18,-8.526187576126675188e-03,1.705237515225335038e-02,-4.019488428745432440e-02,-6.131435520000000361e-01,3.065717760000000180e-01,9.503725056000000393e+00
1.691117564134970368e+18,-8.526187576126675188e-03,2.436053593179049806e-03,-3.045066991473812518e-02,-1.073001215999999980e+00,1.532858880000000090e-01,1.027015449599999997e+01
1.691117564144970496e+18,-1.948842874543239845e-02,2.679658952496954960e-02,-5.237515225334957170e-02,1.532858880000000090e-01,-1.532858880000000090e-01,1.011686860800000076e+01
1.691117564154970368e+18,-1.583434835566382287e-02,3.045066991473812518e-02,-4.141291108404385191e-02,1.532858880000000090e-01,3.065717760000000180e-01,9.197153280000000208e+00
1.691117564164970496e+18,-1.705237515225335038e-02,6.090133982947624515e-03,-2.923264311814859767e-02,-1.073001215999999980e+00,0.000000000000000000e+00,9.503725056000000393e+00
1.691117564174970368e+18,-1.218026796589524903e-02,3.897685749086479690e-02,-1.705237515225335038e-02,4.598576639999999993e-01,1.532858880000000090e-01,9.657010944000001373e+00
1.691117564184970496e+18,-1.583434835566382287e-02,2.192448233861144999e-02,-1.339829476248477480e-02,0.000000000000000000e+00,-3.065717760000000180e-01,9.657010944000001373e+00
1.691117564194970368e+18,-2.679658952496954960e-02,7.308160779537149418e-03,-3.654080389768574709e-03,-3.065717760000000180e-01,-1.532858880000000090e-01,9.350439168000001189e+00
1.691117564204970240e+18,2.436053593179049806e-03,6.090133982947624515e-03,9.744214372716199224e-03,-6.131435520000000361e-01,1.532858880000000090e-01,9.657010944000001373e+00
1.691117564214970624e+18,-1.218026796589524903e-03,2.314250913520097402e-02,1.948842874543239845e-02,3.065717760000000180e-01,1.532858880000000090e-01,9.810296832000000578e+00
1.691117564224970496e+18,2.436053593179049806e-03,4.019488428745432440e-02,3.410475030450670075e-02,-1.532858880000000090e-01,-3.065717760000000180e-01,9.810296832000000578e+00
1.691117564234970624e+18,-4.872107186358099612e-03,4.141291108404385191e-02,3.288672350791717325e-02,1.532858880000000090e-01,-1.532858880000000090e-01,9.350439168000001189e+00
1.691117564244970496e+18,7.308160779537149418e-03,2.679658952496954960e-02,4.384896467722289998e-02,-3.065717760000000180e-01,-1.532858880000000090e-01,9.657010944000001373e+00
1.691117564254970624e+18,0.000000000000000000e+00,2.070645554202192595e-02,5.481120584652862671e-02,-4.598576639999999993e-01,1.532858880000000090e-01,9.350439168000001189e+00
1.691117564264970496e+18,7.308160779537149418e-03,1.461632155907429884e-02,6.455542021924481899e-02,3.065717760000000180e-01,-1.532858880000000090e-01,9.503725056000000393e+00
1.691117564274970624e+18,6.090133982947624515e-03,2.557856272838002556e-02,8.404384896467721744e-02,1.532858880000000090e-01,-1.532858880000000090e-01,9.657010944000001373e+00
1.691117564284970496e+18,1.218026796589524903e-02,2.923264311814859767e-02,7.795371498172959379e-02,-3.065717760000000180e-01,1.532858880000000090e-01,9.657010944000001373e+00
1.691117564294970624e+18,-8.526187576126675188e-03,1.096224116930572499e-02,9.013398294762484109e-02,3.065717760000000180e-01,-3.065717760000000180e-01,9.350439168000001189e+00
1.691117564304970496e+18,1.218026796589524903e-03,2.557856272838002556e-02,8.647990255785627245e-02,4.598576639999999993e-01,0.000000000000000000e+00,9.350439168000001189e+00
1.691117564314970368e+18,7.308160779537149418e-03,1.218026796589524903e-02,9.500609013398295111e-02,0.000000000000000000e+00,0.000000000000000000e+00,9.657010944000001373e+00
1.691117564324970496e+18,-1.218026796589524903e-03,1.705237515225335038e-02,1.059683313032886709e-01,4.598576639999999993e-01,0.000000000000000000e+00,9.657010944000001373e+00
1.691117564334970368e+18,1.583434835566382287e-02,1.339829476248477480e-02,1.010962241169305748e-01,1.532858880000000090e-01,-1.532858880000000090e-01,9.503725056000000393e+00
1.691117564344970496e+18,-6.090133982947624515e-03,1.948842874543239845e-02,1.035322777101096159e-01,3.065717760000000180e-01,-3.065717760000000180e-01,9.810296832000000578e+00
1.691117564354970368e+18,6.090133982947624515e-03,1.218026796589524903e-02,8.404384896467721744e-02,6.131435520000000361e-01,-3.065717760000000180e-01,9.350439168000001189e+00
1.691117564364970496e+18,2.436053593179049806e-03,1.218026796589524903e-02,6.942752740560292901e-02,6.131435520000000361e-01,-1.532858880000000090e-01,9.657010944000001373e+00
1.691117564374970368e+18,1.218026796589524903e-03,1.096224116930572499e-02,7.064555420219244264e-02,6.131435520000000361e-01,-3.065717760000000180e-01,9.657010944000001373e+00
1.691117564384970496e+18,-1.218026796589524903e-03,2.436053593179049806e-02,6.699147381242387400e-02,6.131435520000000361e-01,0.000000000000000000e+00,9.350439168000001189e+00
1.691117564394970368e+18,-3.654080389768574709e-03,1.827040194884287441e-02,6.699147381242387400e-02,3.065717760000000180e-01,-3.065717760000000180e-01,9.503725056000000393e+00
1.691117564404970496e+18,-1.096224116930572499e-02,1.461632155907429884e-02,5.968331303288672285e-02,3.065717760000000180e-01,-1.532858880000000090e-01,9.503725056000000393e+00
1.691117564414970368e+18,-1.218026796589524903e-02,1.583434835566382287e-02,4.628501827040194805e-02,7.664294400000000174e-01,-3.065717760000000180e-01,9.810296832000000578e+00
1.691117564424970496e+18,-1.461632155907429884e-02,2.314250913520097402e-02,2.923264311814859767e-02,-1.532858880000000090e-01,1.532858880000000090e-01,9.810296832000000578e+00
1.691117564434970368e+18,-8.526187576126675188e-03,2.436053593179049806e-03,2.436053593179049806e-02,0.000000000000000000e+00,1.532858880000000090e-01,9.657010944000001373e+00
1.691117564444970496e+18,-1.218026796589524903e-02,1.096224116930572499e-02,1.827040194884287441e-02,0.000000000000000000e+00,1.532858880000000090e-01,9.657010944000001373e+00
1.691117564454970368e+18,1.218026796589524903e-03,1.339829476248477480e-02,1.339829476248477480e-02,0.000000000000000000e+00,-3.065717760000000180e-01,9.657010944000001373e+00
1.691117564464970496e+18,3.654080389768574709e-03,8.526187576126675188e-03,1.339829476248477480e-02,3.065717760000000180e-01,0.000000000000000000e+00,9.350439168000001189e+00
1.691117564474970624e+18,1.096224116930572499e-02,1.583434835566382287e-02,4.872107186358099612e-03,-3.065717760000000180e-01,-3.065717760000000180e-01,9.657010944000001373e+00
1.691117564484970496e+18,0.000000000000000000e+00,2.436053593179049806e-02,-8.526187576126675188e-03,3.065717760000000180e-01,-1.532858880000000090e-01,9.503725056000000393e+00
1.691117564494970624e+18,6.090133982947624515e-03,1.339829476248477480e-02,-1.583434835566382287e-02,4.598576639999999993e-01,-4.598576639999999993e-01,8.890581504000000024e+00
1.691117564504970496e+18,-8.526187576126675188e-03,-1.705237515225335038e-02,-1.339829476248477480e-02,-6.131435520000000361e-01,1.532858880000000090e-01,9.503725056000000393e+00
1.691117564514970624e+18,1.096224116930572499e-02,-1.339829476248477480e-02,1.096224116930572499e-02,-3.065717760000000180e-01,3.065717760000000180e-01,1.011686860800000076e+01
1.691117564524970496e+18,-2.436053593179049806e-03,2.192448233861144999e-02,2.801461632155907364e-02,1.532858880000000090e-01,1.532858880000000090e-01,9.657010944000001373e+00
1.691117564534970624e+18,1.218026796589524903e-03,1.827040194884287441e-02,4.993909866017052362e-02,4.598576639999999993e-01,1.532858880000000090e-01,9.043867392000001004e+00
1.691117564544970496e+18,-1.218026796589524903e-02,1.096224116930572499e-02,7.673568818514006629e-02,-3.065717760000000180e-01,1.532858880000000090e-01,9.503725056000000393e+00
1.691117564554970624e+18,6.090133982947624515e-03,-6.090133982947624515e-03,9.744214372716199224e-02,-3.065717760000000180e-01,6.131435520000000361e-01,9.963582719999999782e+00
1.691117564564970496e+18,-7.308160779537149418e-03,2.923264311814859767e-02,1.181485992691839182e-01,-1.532858880000000090e-01,1.532858880000000090e-01,9.503725056000000393e+00
1.691117564574970368e+18,1.218026796589524903e-03,2.801461632155907364e-02,1.473812423873325228e-01,-3.065717760000000180e-01,6.131435520000000361e-01,9.197153280000000208e+00
1.691117564584970496e+18,2.436053593179049806e-03,1.705237515225335038e-02,1.961023142509135120e-01,0.000000000000000000e+00,9.197153279999999986e-01,9.657010944000001373e+00
1.691117564594970368e+18,2.436053593179049806e-03,-1.218026796589524903e-03,2.399512789281364189e-01,0.000000000000000000e+00,6.131435520000000361e-01,9.810296832000000578e+00
1.691117564604970496e+18,-2.436053593179049806e-03,1.218026796589524903e-03,2.801461632155907155e-01,0.000000000000000000e+00,4.598576639999999993e-01,9.197153280000000208e+00
1.691117564614970368e+18,6.090133982947624515e-03,4.872107186358099612e-03,3.349573690621193700e-01,0.000000000000000000e+00,1.073001215999999980e+00,9.657010944000001373e+00
1.691117564624970496e+18,-7.308160779537149418e-03,2.192448233861144999e-02,3.897685749086479690e-01,-4.598576639999999993e-01,9.197153279999999986e-01,1.011686860800000076e+01
1.691117564634970368e+18,-1.096224116930572499e-02,6.699147381242387400e-02,4.384896467722290136e-01,1.532858880000000090e-01,7.664294400000000174e-01,9.963582719999999782e+00
1.691117564644970496e+18,-8.526187576126675188e-03,2.557856272838002556e-02,4.762484774665042830e-01,3.065717760000000180e-01,7.664294400000000174e-01,9.197153280000000208e+00
1.691117564654970368e+18,-1.096224116930572499e-02,9.744214372716199224e-03,5.371498172959805473e-01,-1.532858880000000090e-01,9.197153279999999986e-01,9.197153280000000208e+00
1.691117564664970496e+18,1.218026796589524903e-02,9.744214372716199224e-03,5.761266747868453164e-01,0.000000000000000000e+00,1.073001215999999980e+00,9.810296832000000578e+00
1.691117564674970368e+18,-7.308160779537149418e-03,2.679658952496954960e-02,6.443361753958587457e-01,3.065717760000000180e-01,9.197153279999999986e-01,9.810296832000000578e+00
1.691117564684970496e+18,-9.744214372716199224e-03,2.923264311814859767e-02,6.906211936662606243e-01,-1.532858880000000090e-01,1.073001215999999980e+00,9.350439168000001189e+00
1.691117564694970368e+18,-8.526187576126675188e-03,2.314250913520097402e-02,7.308160779537149487e-01,0.000000000000000000e+00,9.197153279999999986e-01,9.657010944000001373e+00
1.691117564704970240e+18,-1.218026796589524903e-03,2.679658952496954960e-02,7.661388550548111631e-01,0.000000000000000000e+00,9.197153279999999986e-01,9.503725056000000393e+00
1.691117564714970624e+18,1.218026796589524903e-03,2.679658952496954960e-02,8.087697929354445980e-01,0.000000000000000000e+00,9.197153279999999986e-01,9.810296832000000578e+00
1.691117564724970496e+18,4.872107186358099612e-03,3.166869671132764574e-02,8.501827040194884777e-01,0.000000000000000000e+00,6.131435520000000361e-01,9.503725056000000393e+00
1.691117564734970624e+18,8.526187576126675188e-03,3.045066991473812518e-02,8.745432399512789168e-01,-3.065717760000000180e-01,6.131435520000000361e-01,9.197153280000000208e+00
1.691117564744970496e+18,3.654080389768574709e-03,2.801461632155907364e-02,9.074299634591961317e-01,-4.598576639999999993e-01,6.131435520000000361e-01,9.197153280000000208e+00
1.691117564754970624e+18,1.461632155907429884e-02,1.948842874543239845e-02,9.147381242387332412e-01,1.532858880000000090e-01,3.065717760000000180e-01,9.350439168000001189e+00
1.691117564764970496e+18,7.308160779537149418e-03,1.948842874543239845e-02,9.378806333739342360e-01,-3.065717760000000180e-01,1.532858880000000090e-01,1.011686860800000076e+01
1.691117564774970624e+18,0.000000000000000000e+00,2.801461632155907364e-02,9.342265529841656813e-01,-1.379572992000000164e+00,0.000000000000000000e+00,1.011686860800000076e+01
1.691117564784970496e+18,6.090133982947624515e-03,2.192448233861144999e-02,9.196102314250913512e-01,0.000000000000000000e+00,0.000000000000000000e+00,9.657010944000001373e+00
1.691117564794970624e+18,1.583434835566382287e-02,2.679658952496954960e-02,8.952496954933008011e-01,-1.686144768000000127e+00,-6.131435520000000361e-01,8.890581504000000024e+00
1.691117564804970496e+18,1.096224116930572499e-02,2.314250913520097402e-02,8.623629719853836972e-01,-1.532858880000000090e-01,0.000000000000000000e+00,9.810296832000000578e+00
1.691117564814970368e+18,1.461632155907429884e-02,9.744214372716199224e-03,8.270401948842874829e-01,-1.226287104000000072e+00,-4.598576639999999993e-01,9.657010944000001373e+00
1.691117564824970496e+18,2.436053593179049806e-03,1.583434835566382287e-02,7.917174177831912685e-01,-1.073001215999999980e+00,-6.131435520000000361e-01,9.657010944000001373e+00
1.691117564834970368e+18,4.872107186358099612e-03,1.948842874543239845e-02,7.271619975639463940e-01,-1.532858880000000090e-01,-6.131435520000000361e-01,9.810296832000000578e+00
1.691117564844970496e+18,6.090133982947624515e-03,9.744214372716199224e-03,6.820950060901339596e-01,-7.664294400000000174e-01,-6.131435520000000361e-01,9.810296832000000578e+00
1.691117564854970368e+18,-4.872107186358099612e-03,1.218026796589524903e-02,6.211936662606577508e-01,-1.226287104000000072e+00,-7.664294400000000174e-01,9.657010944000001373e+00
1.691117564864970496e+18,-1.339829476248477480e-02,1.096224116930572499e-02,5.420219244823386573e-01,-1.532858880000000090e-01,-7.664294400000000174e-01,9.657010944000001373e+00
1.691117564874970368e+18,-2.314250913520097402e-02,2.436053593179049806e-03,4.969549330085261674e-01,-6.131435520000000361e-01,-3.065717760000000180e-01,9.350439168000001189e+00
1.691117564884970496e+18,-2.070645554202192595e-02,3.654080389768574709e-03,4.360535931790499586e-01,-6.131435520000000361e-01,-4.598576639999999993e-01,9.657010944000001373e+00
1.691117564894970368e+18,-2.557856272838002556e-02,1.827040194884287441e-02,3.812423873325213042e-01,-6.131435520000000361e-01,-6.131435520000000361e-01,9.810296832000000578e+00
1.691117564904970496e+18,-2.557856272838002556e-02,1.461632155907429884e-02,3.361753958587088698e-01,-7.664294400000000174e-01,-6.131435520000000361e-01,9.810296832000000578e+00
1.691117564914970368e+18,-2.801461632155907364e-02,1.948842874543239845e-02,2.838002436053593258e-01,-4.598576639999999993e-01,-9.197153279999999986e-01,9.350439168000001189e+00
1.691117564924970496e+18,-1.583434835566382287e-02,2.314250913520097402e-02,2.338611449451887814e-01,-4.598576639999999993e-01,-1.073001215999999980e+00,9.503725056000000393e+00
1.691117564934970368e+18,-8.526187576126675188e-03,1.948842874543239845e-02,1.668696711327649074e-01,-7.664294400000000174e-01,-7.664294400000000174e-01,9.503725056000000393e+00
1.691117564944970496e+18,-1.339829476248477480e-02,1.461632155907429884e-02,1.352009744214372755e-01,-1.226287104000000072e+00,-7.664294400000000174e-01,9.350439168000001189e+00
1.691117564954970368e+18,-1.218026796589524903e-03,9.744214372716199224e-03,9.013398294762484109e-02,-1.532858880000000035e+00,-6.131435520000000361e-01,9.350439168000001189e+00
1.691117564964970496e+18,-1.218026796589524903e-03,1.339829476248477480e-02,8.891595615103532746e-02,-7.664294400000000174e-01,-7.664294400000000174e-01,9.503725056000000393e+00
1.691117564974970624e+18,1.096224116930572499e-02,-6.090133982947624515e-03,4.993909866017052362e-02,-6.131435520000000361e-01,-4.598576639999999993e-01,9.350439168000001189e+00
1.691117564984970496e+18,1.218026796589524903e-02,-1.948842874543239845e-02,2.192448233861144999e-02,-1.379572992000000164e+00,-7.664294400000000174e-01,9.657010944000001373e+00
1.691117564994970624e+18,1.218026796589524903e-02,0.000000000000000000e+00,-7.308160779537149418e-03,-7.664294400000000174e-01,-3.065717760000000180e-01,9.657010944000001373e+00
1.691117565004970496e+18,9.744214372716199224e-03,0.000000000000000000e+00,-1.827040194884287441e-02,-4.598576639999999993e-01,-3.065717760000000180e-01,9.503725056000000393e+00
1.691117565014970624e+18,1.218026796589524903e-02,-3.654080389768574709e-03,-3.775883069427527633e-02,-7.664294400000000174e-01,0.000000000000000000e+00,9.657010944000001373e+00
1.691117565024970496e+18,1.339829476248477480e-02,7.308160779537149418e-03,-4.993909866017052362e-02,-1.532858880000000090e-01,-1.532858880000000090e-01,9.657010944000001373e+00
1.691117565034970624e+18,7.308160779537149418e-03,-7.308160779537149418e-03,-5.115712545676005113e-02,-1.226287104000000072e+00,0.000000000000000000e+00,9.963582719999999782e+00
1.691117565044970496e+18,-1.218026796589524903e-03,3.288672350791717325e-02,-1.583434835566382287e-02,1.839430655999999997e+00,3.065717760000000180e-01,9.657010944000001373e+00
1.691117565054970624e+18,-7.308160779537149418e-03,7.308160779537149418e-03,-6.090133982947624515e-03,6.131435520000000361e-01,6.131435520000000361e-01,9.657010944000001373e+00
1.691117565064970496e+18,-1.339829476248477480e-02,3.775883069427527633e-02,2.436053593179049806e-03,1.073001215999999980e+00,1.532858880000000090e-01,9.657010944000001373e+00
1.691117565074970368e+18,-1.948842874543239845e-02,4.263093788063337247e-02,3.532277710109622132e-02,1.379572992000000164e+00,9.197153279999999986e-01,1.027015449599999997e+01
1.691117565084970496e+18,-1.583434835566382287e-02,9.622411693057247861e-02,9.987819732034104725e-02,3.832147200000000087e+00,6.131435520000000361e-01,8.890581504000000024e+00
1.691117565094970368e+18,-3.166869671132764574e-02,3.410475030450670075e-02,1.364190012180268030e-01,1.226287104000000072e+00,7.664294400000000174e-01,1.011686860800000076e+01
1.691117565104970496e+18,-2.070645554202192595e-02,4.141291108404385191e-02,1.900121802679659022e-01,1.532858880000000090e-01,4.598576639999999993e-01,9.963582719999999782e+00
1.691117565114970368e+18,-2.314250913520097402e-02,3.654080389768574882e-02,2.107186358099878143e-01,1.073001215999999980e+00,4.598576639999999993e-01,9.657010944000001373e+00
1.691117565124970496e+18,-4.872107186358099612e-03,7.064555420219244264e-02,2.582216808769792760e-01,7.664294400000000174e-01,4.598576639999999993e-01,9.503725056000000393e+00
1.691117565134970368e+18,-4.872107186358099612e-03,8.891595615103532746e-02,2.959805115712545454e-01,7.664294400000000174e-01,3.065717760000000180e-01,9.197153280000000208e+00
1.691117565144970496e+18,-3.654080389768574709e-03,4.750304506699147555e-02,3.313032886723508152e-01,3.065717760000000180e-01,3.065717760000000180e-01,9.043867392000001004e+00
1.691117565154970368e+18,-4.872107186358099612e-03,2.923264311814859767e-02,3.714981729598051396e-01,6.131435520000000361e-01,3.065717760000000180e-01,9.350439168000001189e+00
1.691117565164970496e+18,9.744214372716199224e-03,2.557856272838002556e-02,4.153471376370280188e-01,9.197153279999999986e-01,3.065717760000000180e-01,9.043867392000001004e+00
1.691117565174970368e+18,1.583434835566382287e-02,2.557856272838002556e-02,4.323995127892813484e-01,1.073001215999999980e+00,4.598576639999999993e-01,9.350439168000001189e+00
1.691117565184970496e+18,1.218026796589524903e-02,7.308160779537149418e-03,4.591961023142508980e-01,1.073001215999999980e+00,1.532858880000000090e-01,9.350439168000001189e+00
1.691117565194970368e+18,1.096224116930572499e-02,3.654080389768574709e-03,4.786845310596833381e-01,7.664294400000000174e-01,-1.532858880000000090e-01,9.657010944000001373e+00
1.691117565204970240e+18,1.461632155907429884e-02,8.526187576126675188e-03,4.859926918392204476e-01,1.839430655999999997e+00,0.000000000000000000e+00,9.657010944000001373e+00
1.691117565214970624e+18,6.090133982947624515e-03,0.000000000000000000e+00,5.091352009744214424e-01,9.197153279999999986e-01,3.065717760000000180e-01,9.503725056000000393e+00
1.691117565224970496e+18,1.583434835566382287e-02,9.744214372716199224e-03,5.249695493300852167e-01,1.379572992000000164e+00,3.065717760000000180e-01,9.350439168000001189e+00
1.691117565234970624e+18,3.654080389768574709e-03,0.000000000000000000e+00,5.298416565164433267e-01,1.379572992000000164e+00,3.065717760000000180e-01,9.043867392000001004e+00
1.691117565244970496e+18,2.436053593179049806e-03,-8.526187576126675188e-03,5.602923264311814311e-01,7.664294400000000174e-01,6.131435520000000361e-01,9.963582719999999782e+00
1.691117565254970624e+18,-1.218026796589524903e-02,-3.654080389768574709e-03,5.785627283800243159e-01,-1.532858880000000090e-01,4.598576639999999993e-01,9.810296832000000578e+00
1.691117565264970496e+18,-4.872107186358099612e-03,2.436053593179049806e-03,5.931790499390986460e-01,1.839430655999999997e+00,4.598576639999999993e-01,9.657010944000001373e+00
1.691117565274970624e+18,-1.096224116930572499e-02,1.948842874543239845e-02,6.187576126674786403e-01,1.686144768000000127e+00,6.131435520000000361e-01,9.197153280000000208e+00
1.691117565284970496e+18,-1.096224116930572499e-02,1.096224116930572499e-02,6.467722289890377452e-01,6.131435520000000361e-01,6.131435520000000361e-01,9.657010944000001373e+00
1.691117565294970624e+18,-2.314250913520097402e-02,1.218026796589524903e-03,6.601705237515225200e-01,6.131435520000000361e-01,9.197153279999999986e-01,9.657010944000001373e+00
1.691117565304970496e+18,-1.339829476248477480e-02,-6.090133982947624515e-03,7.052375152253349544e-01,1.073001215999999980e+00,9.197153279999999986e-01,9.963582719999999782e+00
1.691117565314970368e+18,-6.090133982947624515e-03,2.436053593179049806e-03,7.320341047503045040e-01,6.131435520000000361e-01,7.664294400000000174e-01,9.043867392000001004e+00
1.691117565324970496e+18,0.000000000000000000e+00,1.218026796589524903e-03,7.758830694275273832e-01,6.131435520000000361e-01,6.131435520000000361e-01,9.043867392000001004e+00
1.691117565334970368e+18,1.218026796589524903e-03,6.090133982947624515e-03,7.978075517661388227e-01,4.598576639999999993e-01,6.131435520000000361e-01,9.810296832000000578e+00
1.691117565344970496e+18,2.436053593179049806e-03,6.090133982947624515e-03,8.392204628501827024e-01,6.131435520000000361e-01,6.131435520000000361e-01,9.963582719999999782e+00
1.691117565354970368e+18,1.218026796589524903e-02,0.000000000000000000e+00,8.696711327649208068e-01,3.065717760000000180e-01,6.131435520000000361e-01,9.043867392000001004e+00
1.691117565364970496e+18,1.218026796589524903e-02,3.654080389768574709e-03,9.123020706455542417e-01,6.131435520000000361e-01,7.664294400000000174e-01,9.043867392000001004e+00
1.691117565374970368e+18,1.218026796589524903e-02,-4.872107186358099612e-03,9.403166869671132355e-01,-4.598576639999999993e-01,1.073001215999999980e+00,9.810296832000000578e+00
1.691117565384970496e+18,1.827040194884287441e-02,1.096224116930572499e-02,9.963459196102314452e-01,3.065717760000000180e-01,7.664294400000000174e-01,1.011686860800000076e+01
1.691117565394970368e+18,1.705237515225335038e-02,1.705237515225335038e-02,1.026796589524969550e+00,0.000000000000000000e+00,7.664294400000000174e-01,9.350439168000001189e+00
1.691117565404970496e+18,1.583434835566382287e-02,1.583434835566382287e-02,1.068209500609013318e+00,4.598576639999999993e-01,1.073001215999999980e+00,9.503725056000000393e+00
1.691117565414970368e+18,2.436053593179049806e-03,0.000000000000000000e+00,1.107186358099878198e+00,3.065717760000000180e-01,9.197153279999999986e-01,1.011686860800000076e+01
1.691117565424970496e+18,-1.096224116930572499e-02,4.872107186358099612e-03,1.123020706455541973e+00,-4.598576639999999993e-01,1.073001215999999980e+00,9.503725056000000393e+00
1.691117565434970368e+18,-1.827040194884287441e-02,1.827040194884287441e-02,1.177831912302070627e+00,-7.664294400000000174e-01,9.197153279999999986e-01,9.810296832000000578e+00
1.691117565444970496e+18,-1.339829476248477480e-02,2.679658952496954960e-02,1.187576126674786847e+00,0.000000000000000000e+00,7.664294400000000174e-01,9.810296832000000578e+00
1.691117565454970368e+18,-4.872107186358099612e-03,3.654080389768574882e-02,1.185140073081607737e+00,-7.664294400000000174e-01,6.131435520000000361e-01,9.503725056000000393e+00
1.691117565464970496e+18,-1.339829476248477480e-02,1.948842874543239845e-02,1.193666260657734401e+00,-4.598576639999999993e-01,4.598576639999999993e-01,9.043867392000001004e+00
1.691117565474970624e+18,-1.218026796589524903e-03,1.218026796589524903e-03,1.198538367844092623e+00,-1.379572992000000164e+00,3.065717760000000180e-01,1.011686860800000076e+01
1.691117565484970496e+18,-4.872107186358099612e-03,2.314250913520097402e-02,1.187576126674786847e+00,3.065717760000000180e-01,4.598576639999999993e-01,1.027015449599999997e+01
1.691117565494970624e+18,-2.070645554202192595e-02,6.942752740560292901e-02,1.179049939098660182e+00,-3.065717760000000180e-01,3.065717760000000180e-01,9.810296832000000578e+00
1.691117565504970496e+18,-1.218026796589524903e-02,4.384896467722289998e-02,1.176613885505481072e+00,-1.073001215999999980e+00,0.000000000000000000e+00,9.197153280000000208e+00
1.691117565514970624e+18,-1.339829476248477480e-02,2.192448233861144999e-02,1.137637028014616414e+00,4.598576639999999993e-01,3.065717760000000180e-01,9.963582719999999782e+00
1.691117565524970496e+18,2.436053593179049806e-03,1.827040194884287441e-02,1.124238733252131528e+00,-1.532858880000000035e+00,3.065717760000000180e-01,9.503725056000000393e+00
1.691117565534970624e+18,-3.654080389768574709e-03,1.705237515225335038e-02,1.101096224116930644e+00,-3.065717760000000180e-01,1.532858880000000090e-01,9.043867392000001004e+00
1.691117565544970496e+18,3.654080389768574709e-03,2.070645554202192595e-02,1.091352009744214424e+00,3.065717760000000180e-01,-1.532858880000000090e-01,9.043867392000001004e+00
1.691117565554970624e+18,1.218026796589524903e-03,3.410475030450670075e-02,1.073081607795371539e+00,-6.131435520000000361e-01,3.065717760000000180e-01,9.963582719999999782e+00
1.691117565564970496e+18,8.526187576126675188e-03,4.019488428745432440e-02,1.041412911084043769e+00,-4.598576639999999993e-01,0.000000000000000000e+00,9.963582719999999782e+00
1.691117565574970368e+18,3.654080389768574709e-03,3.654080389768574882e-02,1.029232643118148660e+00,-3.065717760000000180e-01,0.000000000000000000e+00,9.197153280000000208e+00
1.691117565584970496e+18,-1.218026796589524903e-03,2.801461632155907364e-02,1.007308160779537110e+00,6.131435520000000361e-01,1.532858880000000090e-01,9.043867392000001004e+00
1.691117565594970368e+18,-4.872107186358099612e-03,1.948842874543239845e-02,9.975639464068210005e-01,1.532858880000000090e-01,3.065717760000000180e-01,9.810296832000000578e+00
1.691117565604970496e+18,-9.744214372716199224e-03,4.628501827040194805e-02,9.829476248477466704e-01,-1.073001215999999980e+00,9.197153279999999986e-01,9.810296832000000578e+00
1.691117565614970368e+18,1.218026796589524903e-03,4.263093788063337247e-02,9.853836784409256699e-01,3.065717760000000180e-01,3.065717760000000180e-01,9.350439168000001189e+00
1.691117565624970496e+18,-1.339829476248477480e-02,2.314250913520097402e-02,9.866017052375152252e-01,7.664294400000000174e-01,3.065717760000000180e-01,9.043867392000001004e+00
