# timestamp, wx, wy, wz, ax, ay, az
1.691117483944093440e+18,3.654080389768574709e-03,6.090133982947624515e-03,3.654080389768574882e-02,3.065717760000000180e-01,-1.532858880000000090e-01,9.657010944000001373e+00
1.691117483954093568e+18,-3.654080389768574709e-03,1.705237515225335038e-02,3.166869671132764574e-02,3.065717760000000180e-01,-1.532858880000000090e-01,9.350439168000001189e+00
1.691117483964093440e+18,-4.872107186358099612e-03,6.090133982947624515e-03,3.045066991473812518e-02,3.065717760000000180e-01,-3.065717760000000180e-01,9.657010944000001373e+00
1.691117483974093312e+18,7.308160779537149418e-03,1.096224116930572499e-02,2.923264311814859767e-02,0.000000000000000000e+00,-1.532858880000000090e-01,9.503725056000000393e+00
1.691117483984093440e+18,3.654080389768574709e-03,1.218026796589524903e-02,2.801461632155907364e-02,4.598576639999999993e-01,-1.532858880000000090e-01,9.503725056000000393e+00
1.691117483994093312e+18,3.654080389768574709e-03,7.308160779537149418e-03,4.384896467722289998e-02,3.065717760000000180e-01,-3.065717760000000180e-01,9.503725056000000393e+00
1.691117484004093440e+18,1.096224116930572499e-02,6.090133982947624515e-03,3.654080389768574882e-02,3.065717760000000180e-01,-1.532858880000000090e-01,9.503725056000000393e+00
1.691117484014093312e+18,2.436053593179049806e-03,1.218026796589524903e-02,3.288672350791717325e-02,1.532858880000000090e-01,-1.532858880000000090e-01,9.503725056000000393e+00
1.691117484024093440e+18,4.872107186358099612e-03,1.096224116930572499e-02,3.045066991473812518e-02,4.598576639999999993e-01,-1.532858880000000090e-01,9.657010944000001373e+00
1.691117484034093312e+18,-4.872107186358099612e-03,9.744214372716199224e-03,2.923264311814859767e-02,3.065717760000000180e-01,-1.532858880000000090e-01,9.503725056000000393e+00
1.691117484044093440e+18,8.526187576126675188e-03,7.308160779537149418e-03,2.192448233861144999e-02,3.065717760000000180e-01,-3.065717760000000180e-01,9.657010944000001373e+00
1.691117484054093312e+18,-7.308160779537149418e-03,8.526187576126675188e-03,2.801461632155907364e-02,3.065717760000000180e-01,-3.065717760000000180e-01,9.503725056000000393e+00
1.691117484064093440e+18,3.654080389768574709e-03,1.583434835566382287e-02,3.288672350791717325e-02,3.065717760000000180e-01,-1.532858880000000090e-01,9.657010944000001373e+00
1.691117484074093568e+18,8.526187576126675188e-03,1.096224116930572499e-02,3.410475030450670075e-02,0.000000000000000000e+00,0.000000000000000000e+00,9.350439168000001189e+00
1.691117484084093696e+18,1.339829476248477480e-02,1.096224116930572499e-02,3.045066991473812518e-02,1.532858880000000090e-01,-1.532858880000000090e-01,9.503725056000000393e+00
1.691117484094093568e+18,1.218026796589524903e-03,1.096224116930572499e-02,3.045066991473812518e-02,1.532858880000000090e-01,-3.065717760000000180e-01,9.503725056000000393e+00
1.691117484104093440e+18,6.090133982947624515e-03,1.096224116930572499e-02,3.532277710109622132e-02,3.065717760000000180e-01,0.000000000000000000e+00,9.503725056000000393e+00
1.691117484114093568e+18,2.436053593179049806e-03,7.308160779537149418e-03,3.532277710109622132e-02,0.000000000000000000e+00,-1.532858880000000090e-01,9.657010944000001373e+00
1.691117484124093440e+18,-2.436053593179049806e-03,1.339829476248477480e-02,3.288672350791717325e-02,3.065717760000000180e-01,-1.532858880000000090e-01,9.657010944000001373e+00
1.691117484134093568e+18,2.436053593179049806e-03,1.705237515225335038e-02,3.166869671132764574e-02,1.532858880000000090e-01,-1.532858880000000090e-01,9.503725056000000393e+00
1.691117484144093440e+18,4.872107186358099612e-03,1.218026796589524903e-02,3.288672350791717325e-02,1.532858880000000090e-01,-1.532858880000000090e-01,9.657010944000001373e+00
1.691117484154093568e+18,9.744214372716199224e-03,7.308160779537149418e-03,3.045066991473812518e-02,1.532858880000000090e-01,0.000000000000000000e+00,9.503725056000000393e+00
1.691117484164093440e+18,4.872107186358099612e-03,4.872107186358099612e-03,2.923264311814859767e-02,4.598576639999999993e-01,-3.065717760000000180e-01,9.503725056000000393e+00
1.691117484174093568e+18,-1.218026796589524903e-03,8.526187576126675188e-03,1.948842874543239845e-02,4.598576639999999993e-01,0.000000000000000000e+00,9.503725056000000393e+00
1.691117484184093440e+18,0.000000000000000000e+00,6.090133982947624515e-03,3.166869671132764574e-02,4.598576639999999993e-01,-1.532858880000000090e-01,9.503725056000000393e+00
1.691117484194093568e+18,3.654080389768574709e-03,9.744214372716199224e-03,3.775883069427527633e-02,0.000000000000000000e+00,-1.532858880000000090e-01,9.503725056000000393e+00
1.691117484204093440e+18,6.090133982947624515e-03,9.744214372716199224e-03,2.557856272838002556e-02,1.532858880000000090e-01,0.000000000000000000e+00,9.657010944000001373e+00
1.691117484214093568e+18,0.000000000000000000e+00,1.218026796589524903e-02,3.532277710109622132e-02,3.065717760000000180e-01,-1.532858880000000090e-01,9.657010944000001373e+00
1.691117484224093440e+18,2.436053593179049806e-03,6.090133982947624515e-03,3.288672350791717325e-02,6.131435520000000361e-01,-1.532858880000000090e-01,9.350439168000001189e+00
1.691117484234093312e+18,-1.218026796589524903e-03,1.218026796589524903e-02,2.923264311814859767e-02,1.532858880000000090e-01,-1.532858880000000090e-01,9.657010944000001373e+00
1.691117484244093440e+18,1.096224116930572499e-02,8.526187576126675188e-03,2.801461632155907364e-02,1.532858880000000090e-01,0.000000000000000000e+00,9.657010944000001373e+00
1.691117484254093312e+18,-2.436053593179049806e-03,1.096224116930572499e-02,2.314250913520097402e-02,0.000000000000000000e+00,-1.532858880000000090e-01,9.657010944000001373e+00
1.691117484264093440e+18,8.526187576126675188e-03,1.339829476248477480e-02,3.532277710109622132e-02,3.065717760000000180e-01,-1.532858880000000090e-01,9.350439168000001189e+00
1.691117484274093312e+18,1.218026796589524903e-03,7.308160779537149418e-03,2.070645554202192595e-02,4.598576639999999993e-01,-1.532858880000000090e-01,9.657010944000001373e+00
1.691117484284093440e+18,3.654080389768574709e-03,8.526187576126675188e-03,2.801461632155907364e-02,1.532858880000000090e-01,-1.532858880000000090e-01,9.503725056000000393e+00
1.691117484294093312e+18,2.436053593179049806e-03,1.218026796589524903e-02,2.679658952496954960e-02,4.598576639999999993e-01,-1.532858880000000090e-01,9.503725056000000393e+00
1.691117484304093440e+18,0.000000000000000000e+00,1.705237515225335038e-02,3.288672350791717325e-02,3.065717760000000180e-01,-1.532858880000000090e-01,9.657010944000001373e+00
1.691117484314093312e+18,-4.872107186358099612e-03,4.872107186358099612e-03,3.654080389768574882e-02,3.065717760000000180e-01,-1.532858880000000090e-01,9.657010944000001373e+00
1.691117484324093696e+18,7.308160779537149418e-03,7.308160779537149418e-03,3.288672350791717325e-02,3.065717760000000180e-01,-1.532858880000000090e-01,9.503725056000000393e+00
1.691117484334093568e+18,8.526187576126675188e-03,2.436053593179049806e-03,3.654080389768574882e-02,1.532858880000000090e-01,0.000000000000000000e+00,9.503725056000000393e+00
1.691117484344093440e+18,-8.526187576126675188e-03,7.308160779537149418e-03,3.897685749086479690e-02,0.000000000000000000e+00,0.000000000000000000e+00,9.657010944000001373e+00
1.691117484354093568e+18,7.308160779537149418e-03,7.308160779537149418e-03,2.436053593179049806e-02,1.532858880000000090e-01,-1.532858880000000090e-01,9.503725056000000393e+00
1.691117484364093440e+18,0.000000000000000000e+00,7.308160779537149418e-03,3.410475030450670075e-02,1.532858880000000090e-01,-1.532858880000000090e-01,9.350439168000001189e+00
1.691117484374093568e+18,-9.744214372716199224e-03,1.096224116930572499e-02,2.557856272838002556e-02,0.000000000000000000e+00,-1.532858880000000090e-01,9.503725056000000393e+00
1.691117484384093440e+18,0.000000000000000000e+00,1.705237515225335038e-02,3.410475030450670075e-02,0.000000000000000000e+00,-1.532858880000000090e-01,9.657010944000001373e+00
1.691117484394093568e+18,0.000000000000000000e+00,6.090133982947624515e-03,3.288672350791717325e-02,1.532858880000000090e-01,-1.532858880000000090e-01,9.503725056000000393e+00
1.691117484404093440e+18,0.000000000000000000e+00,6.090133982947624515e-03,3.288672350791717325e-02,0.000000000000000000e+00,-1.532858880000000090e-01,9.350439168000001189e+00
1.691117484414093568e+18,-1.218026796589524903e-03,1.339829476248477480e-02,2.923264311814859767e-02,3.065717760000000180e-01,-1.532858880000000090e-01,9.657010944000001373e+00
1.691117484424093440e+18,6.090133982947624515e-03,1.339829476248477480e-02,2.557856272838002556e-02,1.532858880000000090e-01,-1.532858880000000090e-01,9.503725056000000393e+00
1.691117484434093568e+18,-1.218026796589524903e-02,4.872107186358099612e-03,3.410475030450670075e-02,1.532858880000000090e-01,0.000000000000000000e+00,9.657010944000001373e+00
1.691117484444093440e+18,0.000000000000000000e+00,1.339829476248477480e-02,3.897685749086479690e-02,0.000000000000000000e+00,-1.532858880000000090e-01,9.657010944000001373e+00
1.691117484454093568e+18,-1.218026796589524903e-03,9.744214372716199224e-03,3.045066991473812518e-02,-1.532858880000000090e-01,-1.532858880000000090e-01,9.657010944000001373e+00
1.691117484464093440e+18,7.308160779537149418e-03,1.218026796589524903e-02,3.775883069427527633e-02,1.532858880000000090e-01,-1.532858880000000090e-01,9.503725056000000393e+00
1.691117484474093312e+18,0.000000000000000000e+00,7.308160779537149418e-03,3.288672350791717325e-02,1.532858880000000090e-01,-1.532858880000000090e-01,9.657010944000001373e+00
1.691117484484093440e+18,7.308160779537149418e-03,8.526187576126675188e-03,3.532277710109622132e-02,1.532858880000000090e-01,-1.532858880000000090e-01,9.657010944000001373e+00
1.691117484494093312e+18,-7.308160779537149418e-03,3.654080389768574709e-03,3.288672350791717325e-02,1.532858880000000090e-01,-1.532858880000000090e-01,9.657010944000001373e+00
1.691117484504093440e+18,-8.526187576126675188e-03,9.744214372716199224e-03,3.045066991473812518e-02,1.532858880000000090e-01,-1.532858880000000090e-01,9.657010944000001373e+00
1.691117484514093312e+18,0.000000000000000000e+00,9.744214372716199224e-03,3.897685749086479690e-02,3.065717760000000180e-01,-1.532858880000000090e-01,9.503725056000000393e+00
1.691117484524093440e+18,6.090133982947624515e-03,2.436053593179049806e-03,3.775883069427527633e-02,1.532858880000000090e-01,-1.532858880000000090e-01,9.503725056000000393e+00
1.691117484534093312e+18,-6.090133982947624515e-03,6.090133982947624515e-03,4.141291108404385191e-02,4.598576639999999993e-01,-1.532858880000000090e-01,9.657010944000001373e+00
1.691117484544093440e+18,-9.744214372716199224e-03,7.308160779537149418e-03,3.045066991473812518e-02,3.065717760000000180e-01,-1.532858880000000090e-01,9.657010944000001373e+00
1.691117484554093312e+18,-7.308160779537149418e-03,1.096224116930572499e-02,3.775883069427527633e-02,1.532858880000000090e-01,-1.532858880000000090e-01,9.503725056000000393e+00
1.691117484564093440e+18,4.872107186358099612e-03,3.654080389768574709e-03,3.045066991473812518e-02,1.532858880000000090e-01,0.000000000000000000e+00,9.503725056000000393e+00
1.691117484574093568e+18,2.436053593179049806e-03,1.705237515225335038e-02,3.166869671132764574e-02,1.073001215999999980e+00,-3.065717760000000180e-01,9.657010944000001373e+00
1.691117484584093696e+18,-1.218026796589524903e-03,6.090133982947624515e-03,2.557856272838002556e-02,0.000000000000000000e+00,-1.532858880000000090e-01,9.503725056000000393e+00
1.691117484594093568e+18,0.000000000000000000e+00,7.308160779537149418e-03,3.045066991473812518e-02,3.065717760000000180e-01,-1.532858880000000090e-01,9.503725056000000393e+00
1.691117484604093440e+18,1.218026796589524903e-03,8.526187576126675188e-03,3.045066991473812518e-02,3.065717760000000180e-01,0.000000000000000000e+00,9.503725056000000393e+00
1.691117484614093568e+18,9.744214372716199224e-03,1.339829476248477480e-02,2.923264311814859767e-02,3.065717760000000180e-01,-1.532858880000000090e-01,9.810296832000000578e+00
1.691117484624093440e+18,7.308160779537149418e-03,9.744214372716199224e-03,3.166869671132764574e-02,3.065717760000000180e-01,-3.065717760000000180e-01,9.503725056000000393e+00
1.691117484634093568e+18,-2.436053593179049806e-03,7.308160779537149418e-03,2.801461632155907364e-02,1.532858880000000090e-01,-1.532858880000000090e-01,9.503725056000000393e+00
1.691117484644093440e+18,6.090133982947624515e-03,8.526187576126675188e-03,3.166869671132764574e-02,3.065717760000000180e-01,-1.532858880000000090e-01,9.657010944000001373e+00
1.691117484654093568e+18,3.654080389768574709e-03,3.654080389768574709e-03,3.288672350791717325e-02,3.065717760000000180e-01,-3.065717760000000180e-01,9.503725056000000393e+00
1.691117484664093440e+18,1.218026796589524903e-03,1.096224116930572499e-02,2.436053593179049806e-02,3.065717760000000180e-01,-1.532858880000000090e-01,9.503725056000000393e+00
1.691117484674093568e+18,3.654080389768574709e-03,1.218026796589524903e-02,3.166869671132764574e-02,3.065717760000000180e-01,-1.532858880000000090e-01,9.657010944000001373e+00
1.691117484684093440e+18,0.000000000000000000e+00,1.339829476248477480e-02,3.654080389768574882e-02,0.000000000000000000e+00,-1.532858880000000090e-01,9.503725056000000393e+00
1.691117484694093568e+18,-3.654080389768574709e-03,1.218026796589524903e-03,2.923264311814859767e-02,3.065717760000000180e-01,-1.532858880000000090e-01,9.503725056000000393e+00
1.691117484704093440e+18,2.436053593179049806e-03,1.827040194884287441e-02,2.192448233861144999e-02,1.532858880000000090e-01,-1.532858880000000090e-01,9.657010944000001373e+00
1.691117484714093568e+18,1.218026796589524903e-03,9.744214372716199224e-03,3.410475030450670075e-02,3.065717760000000180e-01,-1.532858880000000090e-01,9.657010944000001373e+00
1.691117484724093440e+18,-1.218026796589524903e-02,7.308160779537149418e-03,3.897685749086479690e-02,0.000000000000000000e+00,-1.532858880000000090e-01,9.657010944000001373e+00
1.691117484734093312e+18,-1.218026796589524903e-02,3.654080389768574709e-03,3.166869671132764574e-02,3.065717760000000180e-01,-1.532858880000000090e-01,9.503725056000000393e+00
1.691117484744093440e+18,4.872107186358099612e-03,9.744214372716199224e-03,3.166869671132764574e-02,1.532858880000000090e-01,-1.532858880000000090e-01,9.503725056000000393e+00
1.691117484754093312e+18,6.090133982947624515e-03,1.339829476248477480e-02,2.679658952496954960e-02,6.131435520000000361e-01,0.000000000000000000e+00,9.657010944000001373e+00
1.691117484764093440e+18,4.872107186358099612e-03,6.090133982947624515e-03,3.045066991473812518e-02,1.532858880000000090e-01,-3.065717760000000180e-01,9.350439168000001189e+00
1.691117484774093312e+18,-1.218026796589524903e-03,1.218026796589524903e-02,2.923264311814859767e-02,3.065717760000000180e-01,-1.532858880000000090e-01,9.503725056000000393e+00
1.691117484784093440e+18,0.000000000000000000e+00,1.827040194884287441e-02,2.557856272838002556e-02,1.532858880000000090e-01,-3.065717760000000180e-01,9.503725056000000393e+00
1.691117484794093312e+18,8.526187576126675188e-03,1.096224116930572499e-02,4.019488428745432440e-02,3.065717760000000180e-01,-1.532858880000000090e-01,9.503725056000000393e+00
1.691117484804093440e+18,2.436053593179049806e-03,6.090133982947624515e-03,3.654080389768574882e-02,3.065717760000000180e-01,0.000000000000000000e+00,9.657010944000001373e+00
1.691117484814093312e+18,-6.090133982947624515e-03,7.308160779537149418e-03,3.288672350791717325e-02,3.065717760000000180e-01,-1.532858880000000090e-01,9.503725056000000393e+00
1.691117484824093696e+18,3.654080389768574709e-03,9.744214372716199224e-03,1.948842874543239845e-02,3.065717760000000180e-01,-3.065717760000000180e-01,9.657010944000001373e+00
1.691117484834093568e+18,7.308160779537149418e-03,2.436053593179049806e-03,2.923264311814859767e-02,4.598576639999999993e-01,-1.532858880000000090e-01,9.503725056000000393e+00
1.691117484844093440e+18,0.000000000000000000e+00,9.744214372716199224e-03,3.532277710109622132e-02,3.065717760000000180e-01,-1.532858880000000090e-01,9.503725056000000393e+00
1.691117484854093568e+18,-8.526187576126675188e-03,1.461632155907429884e-02,3.045066991473812518e-02,4.598576639999999993e-01,-3.065717760000000180e-01,9.657010944000001373e+00
1.691117484864093440e+18,7.308160779537149418e-03,1.218026796589524903e-02,3.045066991473812518e-02,0.000000000000000000e+00,-1.532858880000000090e-01,9.503725056000000393e+00
1.691117484874093568e+18,2.436053593179049806e-03,6.090133982947624515e-03,3.410475030450670075e-02,1.532858880000000090e-01,-1.532858880000000090e-01,9.503725056000000393e+00
1.691117484884093440e+18,8.526187576126675188e-03,9.744214372716199224e-03,3.166869671132764574e-02,-1.532858880000000090e-01,-1.532858880000000090e-01,9.503725056000000393e+00
1.691117484894093568e+18,-3.654080389768574709e-03,1.339829476248477480e-02,3.288672350791717325e-02,1.532858880000000090e-01,-1.532858880000000090e-01,9.503725056000000393e+00
1.691117484904093440e+18,0.000000000000000000e+00,7.308160779537149418e-03,2.801461632155907364e-02,3.065717760000000180e-01,-1.532858880000000090e-01,9.657010944000001373e+00
1.691117484914093568e+18,0.000000000000000000e+00,2.192448233861144999e-02,2.557856272838002556e-02,3.065717760000000180e-01,0.000000000000000000e+00,9.657010944000001373e+00
1.691117484924093440e+18,-1.218026796589524903e-03,1.583434835566382287e-02,2.557856272838002556e-02,3.065717760000000180e-01,0.000000000000000000e+00,9.657010944000001373e+00
1.691117484934093568e+18,1.096224116930572499e-02,4.872107186358099612e-03,2.801461632155907364e-02,3.065717760000000180e-01,-1.532858880000000090e-01,9.503725056000000393e+00
1.691117484944093440e+18,-1.218026796589524903e-03,4.872107186358099612e-03,3.166869671132764574e-02,3.065717760000000180e-01,-1.532858880000000090e-01,9.657010944000001373e+00
1.691117484954093568e+18,9.744214372716199224e-03,1.218026796589524903e-02,3.288672350791717325e-02,3.065717760000000180e-01,-1.532858880000000090e-01,9.657010944000001373e+00
1.691117484964093440e+18,-4.872107186358099612e-03,8.526187576126675188e-03,2.801461632155907364e-02,-3.065717760000000180e-01,0.000000000000000000e+00,9.503725056000000393e+00
1.691117484974093312e+18,-4.872107186358099612e-03,8.526187576126675188e-03,3.288672350791717325e-02,1.532858880000000090e-01,-1.532858880000000090e-01,9.657010944000001373e+00
1.691117484984093440e+18,1.218026796589524903e-03,1.339829476248477480e-02,3.532277710109622132e-02,1.532858880000000090e-01,-1.532858880000000090e-01,9.657010944000001373e+00
1.691117484994093312e+18,6.090133982947624515e-03,1.827040194884287441e-02,3.045066991473812518e-02,1.532858880000000090e-01,-1.532858880000000090e-01,9.657010944000001373e+00
1.691117485004093440e+18,1.218026796589524903e-03,9.744214372716199224e-03,3.045066991473812518e-02,0.000000000000000000e+00,-1.532858880000000090e-01,9.657010944000001373e+00
1.691117485014093312e+18,1.218026796589524903e-03,3.654080389768574709e-03,3.532277710109622132e-02,4.598576639999999993e-01,-1.532858880000000090e-01,9.657010944000001373e+00
1.691117485024093440e+18,-3.654080389768574709e-03,6.090133982947624515e-03,3.410475030450670075e-02,3.065717760000000180e-01,-3.065717760000000180e-01,9.503725056000000393e+00
1.691117485034093312e+18,1.218026796589524903e-02,0.000000000000000000e+00,3.410475030450670075e-02,3.065717760000000180e-01,-3.065717760000000180e-01,9.657010944000001373e+00
1.691117485044093440e+18,7.308160779537149418e-03,1.339829476248477480e-02,2.557856272838002556e-02,1.532858880000000090e-01,-1.532858880000000090e-01,9.503725056000000393e+00
1.691117485054093312e+18,2.436053593179049806e-03,9.744214372716199224e-03,2.923264311814859767e-02,1.532858880000000090e-01,-1.532858880000000090e-01,9.657010944000001373e+00
1.691117485064093440e+18,2.436053593179049806e-03,1.218026796589524903e-02,3.775883069427527633e-02,4.598576639999999993e-01,-1.532858880000000090e-01,9.503725056000000393e+00
1.691117485074093568e+18,-1.218026796589524903e-02,7.308160779537149418e-03,3.897685749086479690e-02,0.000000000000000000e+00,-1.532858880000000090e-01,9.503725056000000393e+00
1.691117485084093696e+18,-6.090133982947624515e-03,8.526187576126675188e-03,2.923264311814859767e-02,4.598576639999999993e-01,-1.532858880000000090e-01,9.657010944000001373e+00
1.691117485094093568e+18,0.000000000000000000e+00,7.308160779537149418e-03,3.654080389768574882e-02,3.065717760000000180e-01,-1.532858880000000090e-01,9.503725056000000393e+00
1.691117485104093440e+18,1.705237515225335038e-02,7.308160779537149418e-03,2.801461632155907364e-02,4.598576639999999993e-01,-1.532858880000000090e-01,9.503725056000000393e+00
1.691117485114093568e+18,-4.872107186358099612e-03,1.705237515225335038e-02,3.532277710109622132e-02,1.532858880000000090e-01,-1.532858880000000090e-01,9.350439168000001189e+00
1.691117485124093440e+18,3.654080389768574709e-03,1.096224116930572499e-02,3.045066991473812518e-02,3.065717760000000180e-01,-1.532858880000000090e-01,9.503725056000000393e+00
1.691117485134093568e+18,-8.526187576126675188e-03,9.744214372716199224e-03,3.166869671132764574e-02,0.000000000000000000e+00,-1.532858880000000090e-01,9.657010944000001373e+00
1.691117485144093440e+18,3.654080389768574709e-03,1.461632155907429884e-02,2.923264311814859767e-02,3.065717760000000180e-01,-1.532858880000000090e-01,9.657010944000001373e+00
1.691117485154093568e+18,1.218026796589524903e-03,1.218026796589524903e-02,3.045066991473812518e-02,-4.598576639999999993e-01,-1.532858880000000090e-01,9.350439168000001189e+00
1.691117485164093440e+18,1.218026796589524903e-03,1.705237515225335038e-02,2.801461632155907364e-02,1.532858880000000090e-01,-1.532858880000000090e-01,9.657010944000001373e+00
1.691117485174093568e+18,-6.090133982947624515e-03,7.308160779537149418e-03,3.654080389768574882e-02,1.532858880000000090e-01,-1.532858880000000090e-01,9.657010944000001373e+00
1.691117485184093440e+18,3.654080389768574709e-03,1.948842874543239845e-02,2.436053593179049806e-02,1.532858880000000090e-01,-1.532858880000000090e-01,9.657010944000001373e+00
1.691117485194093568e+18,-1.218026796589524903e-03,1.096224116930572499e-02,3.775883069427527633e-02,1.532858880000000090e-01,0.000000000000000000e+00,9.657010944000001373e+00
1.691117485204093440e+18,3.654080389768574709e-03,7.308160779537149418e-03,2.801461632155907364e-02,4.598576639999999993e-01,-3.065717760000000180e-01,9.657010944000001373e+00
1.691117485214093568e+18,1.827040194884287441e-02,6.090133982947624515e-03,2.923264311814859767e-02,1.532858880000000090e-01,-1.532858880000000090e-01,9.657010944000001373e+00
1.691117485224093440e+18,4.872107186358099612e-03,1.583434835566382287e-02,3.532277710109622132e-02,3.065717760000000180e-01,-1.532858880000000090e-01,9.657010944000001373e+00
1.691117485234093312e+18,-6.090133982947624515e-03,2.436053593179049806e-03,3.532277710109622132e-02,0.000000000000000000e+00,0.000000000000000000e+00,9.657010944000001373e+00
1.691117485244093440e+18,0.000000000000000000e+00,8.526187576126675188e-03,2.679658952496954960e-02,1.532858880000000090e-01,-1.532858880000000090e-01,9.657010944000001373e+00
1.691117485254093312e+18,2.436053593179049806e-03,1.705237515225335038e-02,4.141291108404385191e-02,3.065717760000000180e-01,-1.532858880000000090e-01,9.657010944000001373e+00
1.691117485264093440e+18,-1.218026796589524903e-03,9.744214372716199224e-03,3.654080389768574882e-02,4.598576639999999993e-01,-1.532858880000000090e-01,9.657010944000001373e+00
1.691117485274093312e+18,8.526187576126675188e-03,1.096224116930572499e-02,2.557856272838002556e-02,3.065717760000000180e-01,-1.532858880000000090e-01,9.503725056000000393e+00
1.691117485284093440e+18,1.218026796589524903e-03,9.744214372716199224e-03,4.141291108404385191e-02,1.532858880000000090e-01,-1.532858880000000090e-01,9.503725056000000393e+00
1.691117485294093312e+18,3.654080389768574709e-03,1.461632155907429884e-02,3.045066991473812518e-02,1.532858880000000090e-01,-1.532858880000000090e-01,9.657010944000001373e+00
1.691117485304093440e+18,3.654080389768574709e-03,1.461632155907429884e-02,2.679658952496954960e-02,3.065717760000000180e-01,-1.532858880000000090e-01,9.657010944000001373e+00
1.691117485314093312e+18,-6.090133982947624515e-03,6.090133982947624515e-03,3.045066991473812518e-02,0.000000000000000000e+00,0.000000000000000000e+00,9.503725056000000393e+00
1.691117485324093696e+18,7.308160779537149418e-03,1.339829476248477480e-02,2.923264311814859767e-02,0.000000000000000000e+00,-1.532858880000000090e-01,9.503725056000000393e+00
1.691117485334093568e+18,-3.654080389768574709e-03,9.744214372716199224e-03,3.775883069427527633e-02,3.065717760000000180e-01,-1.532858880000000090e-01,9.657010944000001373e+00
1.691117485344093440e+18,7.308160779537149418e-03,1.218026796589524903e-02,1.948842874543239845e-02,3.065717760000000180e-01,0.000000000000000000e+00,9.503725056000000393e+00
1.691117485354093568e+18,1.218026796589524903e-03,6.090133982947624515e-03,3.775883069427527633e-02,1.532858880000000090e-01,-1.532858880000000090e-01,9.503725056000000393e+00
1.691117485364093440e+18,9.744214372716199224e-03,-2.436053593179049806e-03,3.166869671132764574e-02,4.598576639999999993e-01,-1.532858880000000090e-01,9.657010944000001373e+00
1.691117485374093568e+18,2.436053593179049806e-03,6.090133982947624515e-03,2.801461632155907364e-02,1.532858880000000090e-01,-1.532858880000000090e-01,9.503725056000000393e+00
1.691117485384093440e+18,-3.654080389768574709e-03,8.526187576126675188e-03,2.436053593179049806e-02,4.598576639999999993e-01,-1.532858880000000090e-01,9.657010944000001373e+00
1.691117485394093568e+18,2.436053593179049806e-03,1.461632155907429884e-02,4.019488428745432440e-02,1.532858880000000090e-01,-1.532858880000000090e-01,9.657010944000001373e+00
1.691117485404093440e+18,-1.583434835566382287e-02,6.090133982947624515e-03,2.923264311814859767e-02,3.065717760000000180e-01,-1.532858880000000090e-01,9.503725056000000393e+00
1.691117485414093568e+18,7.308160779537149418e-03,8.526187576126675188e-03,2.801461632155907364e-02,3.065717760000000180e-01,-1.532858880000000090e-01,9.657010944000001373e+00
1.691117485424093440e+18,-8.526187576126675188e-03,4.872107186358099612e-03,2.923264311814859767e-02,3.065717760000000180e-01,-1.532858880000000090e-01,9.657010944000001373e+00
1.691117485434093568e+18,-3.654080389768574709e-03,1.461632155907429884e-02,2.923264311814859767e-02,1.532858880000000090e-01,-1.532858880000000090e-01,9.503725056000000393e+00
1.691117485444093440e+18,7.308160779537149418e-03,3.654080389768574709e-03,2.679658952496954960e-02,3.065717760000000180e-01,0.000000000000000000e+00,9.657010944000001373e+00
1.691117485454093568e+18,0.000000000000000000e+00,8.526187576126675188e-03,3.288672350791717325e-02,1.532858880000000090e-01,-3.065717760000000180e-01,9.503725056000000393e+00
1.691117485464093440e+18,0.000000000000000000e+00,9.744214372716199224e-03,3.410475030450670075e-02,0.000000000000000000e+00,-3.065717760000000180e-01,9.503725056000000393e+00
1.691117485474093312e+18,1.218026796589524903e-03,9.744214372716199224e-03,3.532277710109622132e-02,1.532858880000000090e-01,-1.532858880000000090e-01,9.503725056000000393e+00
1.691117485484093440e+18,-1.218026796589524903e-03,1.218026796589524903e-02,2.801461632155907364e-02,3.065717760000000180e-01,-1.532858880000000090e-01,9.657010944000001373e+00
1.691117485494093312e+18,2.436053593179049806e-03,4.872107186358099612e-03,3.045066991473812518e-02,0.000000000000000000e+00,0.000000000000000000e+00,9.657010944000001373e+00
1.691117485504093440e+18,-1.218026796589524903e-03,7.308160779537149418e-03,4.141291108404385191e-02,4.598576639999999993e-01,-1.532858880000000090e-01,9.657010944000001373e+00
1.691117485514093312e+18,0.000000000000000000e+00,2.436053593179049806e-03,3.775883069427527633e-02,1.532858880000000090e-01,0.000000000000000000e+00,9.657010944000001373e+00
1.691117485524093440e+18,1.218026796589524903e-03,7.308160779537149418e-03,3.775883069427527633e-02,4.598576639999999993e-01,-3.065717760000000180e-01,9.657010944000001373e+00
1.691117485534093312e+18,0.000000000000000000e+00,1.096224116930572499e-02,2.801461632155907364e-02,3.065717760000000180e-01,-3.065717760000000180e-01,9.503725056000000393e+00
1.691117485544093440e+18,3.654080389768574709e-03,9.744214372716199224e-03,2.801461632155907364e-02,1.532858880000000090e-01,-1.532858880000000090e-01,9.657010944000001373e+00
1.691117485554093312e+18,1.218026796589524903e-03,1.096224116930572499e-02,2.557856272838002556e-02,4.598576639999999993e-01,-1.532858880000000090e-01,9.503725056000000393e+00
1.691117485564093440e+18,0.000000000000000000e+00,1.827040194884287441e-02,3.166869671132764574e-02,0.000000000000000000e+00,-1.532858880000000090e-01,9.503725056000000393e+00
1.691117485574093568e+18,7.308160779537149418e-03,9.744214372716199224e-03,3.532277710109622132e-02,3.065717760000000180e-01,0.000000000000000000e+00,9.657010944000001373e+00
1.691117485584093696e+18,2.436053593179049806e-03,1.218026796589524903e-02,2.436053593179049806e-02,3.065717760000000180e-01,-1.532858880000000090e-01,9.503725056000000393e+00
1.691117485594093568e+18,1.218026796589524903e-03,1.218026796589524903e-02,3.897685749086479690e-02,0.000000000000000000e+00,-3.065717760000000180e-01,9.503725056000000393e+00
1.691117485604093440e+18,-4.872107186358099612e-03,9.744214372716199224e-03,3.166869671132764574e-02,1.532858880000000090e-01,0.000000000000000000e+00,9.503725056000000393e+00
1.691117485614093568e+18,9.744214372716199224e-03,8.526187576126675188e-03,2.923264311814859767e-02,3.065717760000000180e-01,-1.532858880000000090e-01,9.503725056000000393e+00
1.691117485624093440e+18,0.000000000000000000e+00,6.090133982947624515e-03,3.166869671132764574e-02,1.532858880000000090e-01,-1.532858880000000090e-01,9.503725056000000393e+00
1.691117485634093568e+18,6.090133982947624515e-03,1.339829476248477480e-02,3.288672350791717325e-02,1.532858880000000090e-01,-1.532858880000000090e-01,9.503725056000000393e+00
1.691117485644093440e+18,4.872107186358099612e-03,7.308160779537149418e-03,2.679658952496954960e-02,1.532858880000000090e-01,-1.532858880000000090e-01,9.503725056000000393e+00
1.691117485654093568e+18,1.339829476248477480e-02,1.583434835566382287e-02,2.314250913520097402e-02,3.065717760000000180e-01,-1.532858880000000090e-01,9.503725056000000393e+00
1.691117485664093440e+18,-3.654080389768574709e-03,9.744214372716199224e-03,3.045066991473812518e-02,3.065717760000000180e-01,-1.532858880000000090e-01,9.503725056000000393e+00
1.691117485674093568e+18,-8.526187576126675188e-03,1.705237515225335038e-02,2.679658952496954960e-02,4.598576639999999993e-01,-3.065717760000000180e-01,9.657010944000001373e+00
1.691117485684093440e+18,-1.218026796589524903e-03,9.744214372716199224e-03,2.801461632155907364e-02,3.065717760000000180e-01,0.000000000000000000e+00,9.503725056000000393e+00
1.691117485694093568e+18,-1.096224116930572499e-02,1.096224116930572499e-02,3.532277710109622132e-02,0.000000000000000000e+00,-1.532858880000000090e-01,9.503725056000000393e+00
1.691117485704093440e+18,6.090133982947624515e-03,1.096224116930572499e-02,3.654080389768574882e-02,1.532858880000000090e-01,-1.532858880000000090e-01,9.657010944000001373e+00
1.691117485714093568e+18,4.872107186358099612e-03,9.744214372716199224e-03,3.654080389768574882e-02,0.000000000000000000e+00,-1.532858880000000090e-01,9.503725056000000393e+00
1.691117485724093440e+18,8.526187576126675188e-03,7.308160779537149418e-03,3.045066991473812518e-02,1.532858880000000090e-01,-1.532858880000000090e-01,9.657010944000001373e+00
1.691117485734093312e+18,-1.096224116930572499e-02,6.090133982947624515e-03,2.923264311814859767e-02,6.131435520000000361e-01,-1.532858880000000090e-01,9.963582719999999782e+00
1.691117485744093440e+18,3.654080389768574709e-03,1.339829476248477480e-02,4.019488428745432440e-02,1.532858880000000090e-01,0.000000000000000000e+00,9.657010944000001373e+00
1.691117485754093312e+18,1.461632155907429884e-02,1.339829476248477480e-02,2.314250913520097402e-02,3.065717760000000180e-01,-1.532858880000000090e-01,9.503725056000000393e+00
1.691117485764093440e+18,1.218026796589524903e-03,9.744214372716199224e-03,3.410475030450670075e-02,3.065717760000000180e-01,-1.532858880000000090e-01,9.657010944000001373e+00
1.691117485774093312e+18,-4.872107186358099612e-03,9.744214372716199224e-03,3.288672350791717325e-02,4.598576639999999993e-01,-1.532858880000000090e-01,9.657010944000001373e+00
1.691117485784093440e+18,-1.218026796589524903e-03,1.096224116930572499e-02,3.410475030450670075e-02,1.532858880000000090e-01,-1.532858880000000090e-01,9.503725056000000393e+00
1.691117485794093312e+18,-9.744214372716199224e-03,7.308160779537149418e-03,3.654080389768574882e-02,3.065717760000000180e-01,-3.065717760000000180e-01,9.657010944000001373e+00
1.691117485804093440e+18,2.436053593179049806e-03,7.308160779537149418e-03,3.532277710109622132e-02,4.598576639999999993e-01,-3.065717760000000180e-01,9.503725056000000393e+00
1.691117485814093312e+18,0.000000000000000000e+00,4.872107186358099612e-03,3.654080389768574882e-02,0.000000000000000000e+00,-1.532858880000000090e-01,9.350439168000001189e+00
1.691117485824093696e+18,6.090133982947624515e-03,8.526187576126675188e-03,4.141291108404385191e-02,3.065717760000000180e-01,-1.532858880000000090e-01,9.503725056000000393e+00
1.691117485834093568e+18,-6.090133982947624515e-03,1.583434835566382287e-02,2.436053593179049806e-02,3.065717760000000180e-01,-1.532858880000000090e-01,9.657010944000001373e+00
1.691117485844093440e+18,-1.218026796589524903e-03,1.339829476248477480e-02,2.679658952496954960e-02,3.065717760000000180e-01,0.000000000000000000e+00,9.503725056000000393e+00
1.691117485854093568e+18,-4.872107186358099612e-03,8.526187576126675188e-03,3.166869671132764574e-02,0.000000000000000000e+00,-1.532858880000000090e-01,9.503725056000000393e+00
1.691117485864093440e+18,6.090133982947624515e-03,6.090133982947624515e-03,3.166869671132764574e-02,0.000000000000000000e+00,-1.532858880000000090e-01,9.503725056000000393e+00
1.691117485874093568e+18,-7.308160779537149418e-03,4.872107186358099612e-03,3.654080389768574882e-02,3.065717760000000180e-01,-3.065717760000000180e-01,9.503725056000000393e+00
1.691117485884093440e+18,4.872107186358099612e-03,1.461632155907429884e-02,3.166869671132764574e-02,1.532858880000000090e-01,-1.532858880000000090e-01,9.503725056000000393e+00
1.691117485894093568e+18,6.090133982947624515e-03,3.654080389768574709e-03,2.923264311814859767e-02,0.000000000000000000e+00,-1.532858880000000090e-01,9.503725056000000393e+00
1.691117485904093440e+18,6.090133982947624515e-03,9.744214372716199224e-03,3.775883069427527633e-02,3.065717760000000180e-01,-1.532858880000000090e-01,9.657010944000001373e+00
1.691117485914093568e+18,4.872107186358099612e-03,7.308160779537149418e-03,2.923264311814859767e-02,1.532858880000000090e-01,-1.532858880000000090e-01,9.503725056000000393e+00
1.691117485924093440e+18,-4.872107186358099612e-03,4.872107186358099612e-03,2.923264311814859767e-02,3.065717760000000180e-01,-1.532858880000000090e-01,9.503725056000000393e+00
1.691117485934093568e+18,-3.654080389768574709e-03,8.526187576126675188e-03,3.166869671132764574e-02,3.065717760000000180e-01,-3.065717760000000180e-01,9.503725056000000393e+00
1.691117485944093440e+18,3.654080389768574709e-03,9.744214372716199224e-03,2.679658952496954960e-02,1.532858880000000090e-01,0.000000000000000000e+00,9.657010944000001373e+00
1.691117485954093568e+18,-7.308160779537149418e-03,8.526187576126675188e-03,3.532277710109622132e-02,3.065717760000000180e-01,-1.532858880000000090e-01,9.503725056000000393e+00
1.691117485964093440e+18,7.308160779537149418e-03,6.090133982947624515e-03,3.166869671132764574e-02,1.532858880000000090e-01,-1.532858880000000090e-01,9.350439168000001189e+00
1.691117485974093312e+18,4.872107186358099612e-03,9.744214372716199224e-03,3.045066991473812518e-02,3.065717760000000180e-01,-1.532858880000000090e-01,9.503725056000000393e+00
1.691117485984093440e+18,3.654080389768574709e-03,7.308160779537149418e-03,2.192448233861144999e-02,1.532858880000000090e-01,-1.532858880000000090e-01,9.657010944000001373e+00
1.691117485994093312e+18,-2.436053593179049806e-03,8.526187576126675188e-03,3.532277710109622132e-02,3.065717760000000180e-01,-1.532858880000000090e-01,9.503725056000000393e+00
1.691117486004093440e+18,-3.654080389768574709e-03,8.526187576126675188e-03,3.532277710109622132e-02,4.598576639999999993e-01,-3.065717760000000180e-01,9.503725056000000393e+00
1.691117486014093312e+18,6.090133982947624515e-03,9.744214372716199224e-03,3.045066991473812518e-02,1.532858880000000090e-01,-1.532858880000000090e-01,9.657010944000001373e+00
1.691117486024093440e+18,0.000000000000000000e+00,1.461632155907429884e-02,3.410475030450670075e-02,1.532858880000000090e-01,-3.065717760000000180e-01,9.657010944000001373e+00
1.691117486034093312e+18,0.000000000000000000e+00,3.654080389768574709e-03,3.532277710109622132e-02,1.532858880000000090e-01,-1.532858880000000090e-01,9.503725056000000393e+00
1.691117486044093440e+18,0.000000000000000000e+00,6.090133982947624515e-03,3.288672350791717325e-02,9.197153279999999986e-01,-1.532858880000000090e-01,9.350439168000001189e+00
1.691117486054093312e+18,8.526187576126675188e-03,7.308160779537149418e-03,3.166869671132764574e-02,3.065717760000000180e-01,-1.532858880000000090e-01,9.657010944000001373e+00
1.691117486064093440e+18,3.654080389768574709e-03,8.526187576126675188e-03,3.410475030450670075e-02,0.000000000000000000e+00,-1.532858880000000090e-01,9.503725056000000393e+00
1.691117486074093568e+18,1.218026796589524903e-03,1.096224116930572499e-02,3.775883069427527633e-02,3.065717760000000180e-01,-1.532858880000000090e-01,9.503725056000000393e+00
1.691117486084093696e+18,3.654080389768574709e-03,2.436053593179049806e-03,3.775883069427527633e-02,3.065717760000000180e-01,-1.532858880000000090e-01,9.350439168000001189e+00
1.691117486094093568e+18,-8.526187576126675188e-03,8.526187576126675188e-03,3.166869671132764574e-02,3.065717760000000180e-01,0.000000000000000000e+00,9.657010944000001373e+00
1.691117486104093440e+18,-6.090133982947624515e-03,1.461632155907429884e-02,3.045066991473812518e-02,0.000000000000000000e+00,-1.532858880000000090e-01,9.503725056000000393e+00
1.691117486114093568e+18,7.308160779537149418e-03,7.308160779537149418e-03,3.410475030450670075e-02,0.000000000000000000e+00,-1.532858880000000090e-01,9.503725056000000393e+00
1.691117486124093440e+18,-2.436053593179049806e-03,7.308160779537149418e-03,3.410475030450670075e-02,0.000000000000000000e+00,-1.532858880000000090e-01,9.503725056000000393e+00
1.691117486134093568e+18,4.872107186358099612e-03,1.339829476248477480e-02,3.166869671132764574e-02,3.065717760000000180e-01,-1.532858880000000090e-01,9.503725056000000393e+00
1.691117486144093440e+18,-6.090133982947624515e-03,1.827040194884287441e-02,2.801461632155907364e-02,1.532858880000000090e-01,-1.532858880000000090e-01,9.657010944000001373e+00
1.691117486154093568e+18,6.090133982947624515e-03,1.218026796589524903e-02,3.045066991473812518e-02,3.065717760000000180e-01,0.000000000000000000e+00,9.810296832000000578e+00
1.691117486164093440e+18,8.526187576126675188e-03,1.461632155907429884e-02,3.775883069427527633e-02,0.000000000000000000e+00,0.000000000000000000e+00,9.503725056000000393e+00
1.691117486174093568e+18,4.872107186358099612e-03,2.436053593179049806e-03,2.436053593179049806e-02,4.598576639999999993e-01,-1.532858880000000090e-01,9.657010944000001373e+00
1.691117486184093440e+18,6.090133982947624515e-03,1.583434835566382287e-02,3.166869671132764574e-02,0.000000000000000000e+00,0.000000000000000000e+00,9.657010944000001373e+00
1.691117486194093568e+18,3.654080389768574709e-03,1.339829476248477480e-02,3.532277710109622132e-02,-3.065717760000000180e-01,-3.065717760000000180e-01,9.043867392000001004e+00
1.691117486204093440e+18,3.654080389768574709e-03,3.654080389768574709e-03,3.654080389768574882e-02,3.065717760000000180e-01,-1.532858880000000090e-01,9.657010944000001373e+00
1.691117486214093568e+18,1.218026796589524903e-03,9.744214372716199224e-03,4.141291108404385191e-02,1.532858880000000090e-01,-3.065717760000000180e-01,9.657010944000001373e+00
1.691117486224093440e+18,1.218026796589524903e-03,1.218026796589524903e-02,3.410475030450670075e-02,3.065717760000000180e-01,0.000000000000000000e+00,9.657010944000001373e+00
1.691117486234093312e+18,3.654080389768574709e-03,8.526187576126675188e-03,3.775883069427527633e-02,0.000000000000000000e+00,-1.532858880000000090e-01,9.657010944000001373e+00
1.691117486244093440e+18,-7.308160779537149418e-03,1.096224116930572499e-02,3.045066991473812518e-02,3.065717760000000180e-01,-1.532858880000000090e-01,9.657010944000001373e+00
1.691117486254093312e+18,1.218026796589524903e-03,9.744214372716199224e-03,3.288672350791717325e-02,3.065717760000000180e-01,-3.065717760000000180e-01,9.657010944000001373e+00
1.691117486264093440e+18,-2.436053593179049806e-03,1.705237515225335038e-02,2.801461632155907364e-02,3.065717760000000180e-01,-3.065717760000000180e-01,9.503725056000000393e+00
1.691117486274093312e+18,7.308160779537149418e-03,8.526187576126675188e-03,2.923264311814859767e-02,6.131435520000000361e-01,-1.532858880000000090e-01,9.810296832000000578e+00
1.691117486284093440e+18,-6.090133982947624515e-03,4.872107186358099612e-03,3.410475030450670075e-02,1.532858880000000090e-01,0.000000000000000000e+00,9.503725056000000393e+00
1.691117486294093312e+18,-1.218026796589524903e-02,8.526187576126675188e-03,3.166869671132764574e-02,0.000000000000000000e+00,0.000000000000000000e+00,9.657010944000001373e+00
1.691117486304093440e+18,2.436053593179049806e-03,1.218026796589524903e-02,2.679658952496954960e-02,4.598576639999999993e-01,0.000000000000000000e+00,9.503725056000000393e+00
1.691117486314093312e+18,0.000000000000000000e+00,6.090133982947624515e-03,3.410475030450670075e-02,7.664294400000000174e-01,-1.532858880000000090e-01,9.503725056000000393e+00
1.691117486324093696e+18,-3.654080389768574709e-03,1.339829476248477480e-02,3.410475030450670075e-02,1.532858880000000090e-01,-1.532858880000000090e-01,9.503725056000000393e+00
1.691117486334093568e+18,-2.436053593179049806e-03,1.339829476248477480e-02,3.410475030450670075e-02,1.532858880000000090e-01,-1.532858880000000090e-01,9.657010944000001373e+00
1.691117486344093440e+18,3.654080389768574709e-03,1.339829476248477480e-02,4.019488428745432440e-02,3.065717760000000180e-01,-1.532858880000000090e-01,9.657010944000001373e+00
1.691117486354093568e+18,6.090133982947624515e-03,9.744214372716199224e-03,3.897685749086479690e-02,1.532858880000000090e-01,0.000000000000000000e+00,9.350439168000001189e+00
1.691117486364093440e+18,2.436053593179049806e-03,4.872107186358099612e-03,2.923264311814859767e-02,4.598576639999999993e-01,-1.532858880000000090e-01,9.503725056000000393e+00
1.691117486374093568e+18,-7.308160779537149418e-03,8.526187576126675188e-03,2.801461632155907364e-02,1.532858880000000090e-01,-1.532858880000000090e-01,9.657010944000001373e+00
1.691117486384093440e+18,1.096224116930572499e-02,1.218026796589524903e-02,3.410475030450670075e-02,1.532858880000000090e-01,-1.532858880000000090e-01,9.503725056000000393e+00
1.691117486394093568e+18,1.218026796589524903e-03,4.872107186358099612e-03,3.288672350791717325e-02,4.598576639999999993e-01,-1.532858880000000090e-01,9.503725056000000393e+00
1.691117486404093440e+18,2.436053593179049806e-03,8.526187576126675188e-03,4.141291108404385191e-02,0.000000000000000000e+00,-1.532858880000000090e-01,9.657010944000001373e+00
1.691117486414093568e+18,2.436053593179049806e-03,9.744214372716199224e-03,3.410475030450670075e-02,1.532858880000000090e-01,0.000000000000000000e+00,9.657010944000001373e+00
1.691117486424093440e+18,0.000000000000000000e+00,9.744214372716199224e-03,4.019488428745432440e-02,1.532858880000000090e-01,0.000000000000000000e+00,9.503725056000000393e+00
1.691117486434093568e+18,3.654080389768574709e-03,1.218026796589524903e-03,2.923264311814859767e-02,1.532858880000000090e-01,-1.532858880000000090e-01,9.657010944000001373e+00
1.691117486444093440e+18,0.000000000000000000e+00,1.096224116930572499e-02,2.679658952496954960e-02,3.065717760000000180e-01,-1.532858880000000090e-01,9.503725056000000393e+00
1.691117486454093568e+18,-3.654080389768574709e-03,1.096224116930572499e-02,3.897685749086479690e-02,1.532858880000000090e-01,-1.532858880000000090e-01,9.657010944000001373e+00
1.691117486464093440e+18,3.654080389768574709e-03,2.436053593179049806e-03,3.897685749086479690e-02,0.000000000000000000e+00,-1.532858880000000090e-01,9.657010944000001373e+00
1.691117486474093312e+18,1.096224116930572499e-02,8.526187576126675188e-03,3.654080389768574882e-02,4.598576639999999993e-01,-1.532858880000000090e-01,9.503725056000000393e+00
1.691117486484093440e+18,0.000000000000000000e+00,6.090133982947624515e-03,2.923264311814859767e-02,1.532858880000000090e-01,-1.532858880000000090e-01,9.503725056000000393e+00
1.691117486494093312e+18,2.436053593179049806e-03,1.096224116930572499e-02,3.288672350791717325e-02,3.065717760000000180e-01,-1.532858880000000090e-01,9.503725056000000393e+00
1.691117486504093440e+18,-2.436053593179049806e-03,7.308160779537149418e-03,2.557856272838002556e-02,3.065717760000000180e-01,-1.532858880000000090e-01,9.657010944000001373e+00
1.691117486514093312e+18,2.436053593179049806e-03,8.526187576126675188e-03,3.410475030450670075e-02,1.532858880000000090e-01,-1.532858880000000090e-01,9.503725056000000393e+00
1.691117486524093440e+18,-4.872107186358099612e-03,9.744214372716199224e-03,2.679658952496954960e-02,1.532858880000000090e-01,-3.065717760000000180e-01,9.657010944000001373e+00
1.691117486534093312e+18,3.654080389768574709e-03,7.308160779537149418e-03,2.679658952496954960e-02,3.065717760000000180e-01,0.000000000000000000e+00,9.503725056000000393e+00
1.691117486544093440e+18,0.000000000000000000e+00,1.705237515225335038e-02,1.827040194884287441e-02,1.532858880000000090e-01,-1.532858880000000090e-01,9.657010944000001373e+00
1.691117486554093312e+18,1.218026796589524903e-03,6.090133982947624515e-03,3.288672350791717325e-02,1.532858880000000090e-01,-1.532858880000000090e-01,9.503725056000000393e+00
1.691117486564093440e+18,-3.654080389768574709e-03,8.526187576126675188e-03,2.923264311814859767e-02,3.065717760000000180e-01,-3.065717760000000180e-01,9.503725056000000393e+00
1.691117486574093568e+18,-2.436053593179049806e-03,3.654080389768574709e-03,2.801461632155907364e-02,3.065717760000000180e-01,-1.532858880000000090e-01,9.657010944000001373e+00
1.691117486584093696e+18,4.872107186358099612e-03,1.339829476248477480e-02,2.679658952496954960e-02,-1.532858880000000090e-01,-1.532858880000000090e-01,9.657010944000001373e+00
1.691117486594093568e+18,-2.436053593179049806e-03,1.096224116930572499e-02,3.288672350791717325e-02,3.065717760000000180e-01,-1.532858880000000090e-01,9.657010944000001373e+00
1.691117486604093440e+18,3.654080389768574709e-03,1.218026796589524903e-02,3.532277710109622132e-02,0.000000000000000000e+00,-1.532858880000000090e-01,9.657010944000001373e+00
1.691117486614093568e+18,-4.872107186358099612e-03,1.218026796589524903e-02,3.045066991473812518e-02,1.532858880000000090e-01,0.000000000000000000e+00,9.503725056000000393e+00
1.691117486624093440e+18,1.583434835566382287e-02,1.096224116930572499e-02,3.654080389768574882e-02,1.532858880000000090e-01,-1.532858880000000090e-01,9.657010944000001373e+00
1.691117486634093568e+18,0.000000000000000000e+00,8.526187576126675188e-03,3.166869671132764574e-02,3.065717760000000180e-01,-3.065717760000000180e-01,9.503725056000000393e+00
1.691117486644093440e+18,1.218026796589524903e-03,4.872107186358099612e-03,3.410475030450670075e-02,3.065717760000000180e-01,-1.532858880000000090e-01,9.657010944000001373e+00
1.691117486654093568e+18,-1.218026796589524903e-03,9.744214372716199224e-03,2.801461632155907364e-02,4.598576639999999993e-01,-1.532858880000000090e-01,9.657010944000001373e+00
1.691117486664093440e+18,-1.218026796589524903e-02,1.461632155907429884e-02,2.679658952496954960e-02,3.065717760000000180e-01,-1.532858880000000090e-01,9.657010944000001373e+00
1.691117486674093568e+18,1.218026796589524903e-03,1.461632155907429884e-02,3.166869671132764574e-02,4.598576639999999993e-01,-3.065717760000000180e-01,9.657010944000001373e+00
1.691117486684093440e+18,1.218026796589524903e-03,9.744214372716199224e-03,2.557856272838002556e-02,3.065717760000000180e-01,-1.532858880000000090e-01,9.503725056000000393e+00
1.691117486694093568e+18,4.872107186358099612e-03,9.744214372716199224e-03,4.141291108404385191e-02,1.532858880000000090e-01,-1.532858880000000090e-01,9.503725056000000393e+00
1.691117486704093440e+18,-9.744214372716199224e-03,7.308160779537149418e-03,2.557856272838002556e-02,4.598576639999999993e-01,-1.532858880000000090e-01,9.657010944000001373e+00
1.691117486714093568e+18,8.526187576126675188e-03,1.096224116930572499e-02,2.679658952496954960e-02,1.532858880000000090e-01,-1.532858880000000090e-01,9.503725056000000393e+00
1.691117486724093440e+18,-1.218026796589524903e-03,8.526187576126675188e-03,3.775883069427527633e-02,1.532858880000000090e-01,-3.065717760000000180e-01,9.503725056000000393e+00
1.691117486734093312e+18,6.090133982947624515e-03,4.872107186358099612e-03,2.923264311814859767e-02,4.598576639999999993e-01,-1.532858880000000090e-01,9.657010944000001373e+00
1.691117486744093440e+18,-1.218026796589524903e-03,3.654080389768574709e-03,3.288672350791717325e-02,1.532858880000000090e-01,-1.532858880000000090e-01,9.657010944000001373e+00
1.691117486754093312e+18,-1.218026796589524903e-03,6.090133982947624515e-03,3.897685749086479690e-02,3.065717760000000180e-01,-1.532858880000000090e-01,9.503725056000000393e+00
1.691117486764093440e+18,2.436053593179049806e-03,9.744214372716199224e-03,3.410475030450670075e-02,1.532858880000000090e-01,0.000000000000000000e+00,9.503725056000000393e+00
1.691117486774093312e+18,2.436053593179049806e-03,8.526187576126675188e-03,3.045066991473812518e-02,3.065717760000000180e-01,-1.532858880000000090e-01,9.657010944000001373e+00
1.691117486784093440e+18,2.436053593179049806e-03,2.436053593179049806e-03,3.775883069427527633e-02,3.065717760000000180e-01,-3.065717760000000180e-01,9.657010944000001373e+00
1.691117486794093312e+18,-4.872107186358099612e-03,9.744214372716199224e-03,3.045066991473812518e-02,3.065717760000000180e-01,-3.065717760000000180e-01,9.657010944000001373e+00
1.691117486804093440e+18,6.090133982947624515e-03,6.090133982947624515e-03,2.923264311814859767e-02,3.065717760000000180e-01,-1.532858880000000090e-01,9.503725056000000393e+00
1.691117486814093312e+18,-4.872107186358099612e-03,7.308160779537149418e-03,3.654080389768574882e-02,0.000000000000000000e+00,-1.532858880000000090e-01,9.657010944000001373e+00
1.691117486824093696e+18,4.872107186358099612e-03,1.218026796589524903e-02,2.436053593179049806e-02,0.000000000000000000e+00,-1.532858880000000090e-01,9.503725056000000393e+00
1.691117486834093568e+18,3.654080389768574709e-03,1.218026796589524903e-02,2.801461632155907364e-02,1.532858880000000090e-01,-3.065717760000000180e-01,9.503725056000000393e+00
1.691117486844093440e+18,2.436053593179049806e-03,8.526187576126675188e-03,3.410475030450670075e-02,1.532858880000000090e-01,-1.532858880000000090e-01,9.503725056000000393e+00
1.691117486854093568e+18,2.436053593179049806e-03,1.218026796589524903e-02,3.045066991473812518e-02,-9.197153279999999986e-01,-1.532858880000000090e-01,9.503725056000000393e+00
1.691117486864093440e+18,9.744214372716199224e-03,1.218026796589524903e-02,3.045066991473812518e-02,3.065717760000000180e-01,-1.532858880000000090e-01,9.657010944000001373e+00
1.691117486874093568e+18,-8.526187576126675188e-03,8.526187576126675188e-03,2.923264311814859767e-02,1.532858880000000090e-01,0.000000000000000000e+00,9.503725056000000393e+00
1.691117486884093440e+18,3.654080389768574709e-03,1.583434835566382287e-02,2.801461632155907364e-02,1.532858880000000090e-01,0.000000000000000000e+00,9.503725056000000393e+00
1.691117486894093568e+18,1.218026796589524903e-03,4.872107186358099612e-03,4.263093788063337247e-02,3.065717760000000180e-01,-1.532858880000000090e-01,9.657010944000001373e+00
1.691117486904093440e+18,1.218026796589524903e-03,8.526187576126675188e-03,2.923264311814859767e-02,3.065717760000000180e-01,0.000000000000000000e+00,9.503725056000000393e+00
1.691117486914093568e+18,4.872107186358099612e-03,8.526187576126675188e-03,3.532277710109622132e-02,-1.532858880000000090e-01,-1.532858880000000090e-01,9.657010944000001373e+00
1.691117486924093440e+18,2.436053593179049806e-03,0.000000000000000000e+00,2.557856272838002556e-02,1.532858880000000090e-01,-3.065717760000000180e-01,9.503725056000000393e+00
1.691117486934093568e+18,-1.218026796589524903e-03,7.308160779537149418e-03,3.532277710109622132e-02,3.065717760000000180e-01,-1.532858880000000090e-01,9.657010944000001373e+00
1.691117486944093440e+18,-4.872107186358099612e-03,1.218026796589524903e-02,3.532277710109622132e-02,1.532858880000000090e-01,-1.532858880000000090e-01,9.503725056000000393e+00
1.691117486954093568e+18,-4.872107186358099612e-03,1.583434835566382287e-02,2.679658952496954960e-02,3.065717760000000180e-01,-1.532858880000000090e-01,9.657010944000001373e+00
1.691117486964093440e+18,-1.096224116930572499e-02,7.308160779537149418e-03,4.019488428745432440e-02,3.065717760000000180e-01,-1.532858880000000090e-01,9.503725056000000393e+00
1.691117486974093312e+18,-9.744214372716199224e-03,3.654080389768574709e-03,3.288672350791717325e-02,3.065717760000000180e-01,0.000000000000000000e+00,9.657010944000001373e+00
1.691117486984093440e+18,6.090133982947624515e-03,8.526187576126675188e-03,3.045066991473812518e-02,3.065717760000000180e-01,-1.532858880000000090e-01,9.503725056000000393e+00
1.691117486994093312e+18,0.000000000000000000e+00,9.744214372716199224e-03,2.801461632155907364e-02,4.598576639999999993e-01,-1.532858880000000090e-01,9.503725056000000393e+00
1.691117487004093440e+18,7.308160779537149418e-03,9.744214372716199224e-03,2.436053593179049806e-02,3.065717760000000180e-01,-1.532858880000000090e-01,9.657010944000001373e+00
1.691117487014093312e+18,2.436053593179049806e-03,9.744214372716199224e-03,1.948842874543239845e-02,3.065717760000000180e-01,-3.065717760000000180e-01,9.503725056000000393e+00
1.691117487024093440e+18,7.308160779537149418e-03,1.218026796589524903e-02,2.923264311814859767e-02,-1.532858880000000090e-01,-3.065717760000000180e-01,9.503725056000000393e+00
1.691117487034093312e+18,-1.218026796589524903e-02,6.090133982947624515e-03,3.532277710109622132e-02,0.000000000000000000e+00,0.000000000000000000e+00,9.657010944000001373e+00
1.691117487044093440e+18,0.000000000000000000e+00,9.744214372716199224e-03,3.775883069427527633e-02,0.000000000000000000e+00,-1.532858880000000090e-01,9.503725056000000393e+00
1.691117487054093312e+18,1.096224116930572499e-02,1.827040194884287441e-02,2.801461632155907364e-02,3.065717760000000180e-01,-1.532858880000000090e-01,9.657010944000001373e+00
1.691117487064093440e+18,3.654080389768574709e-03,1.218026796589524903e-02,2.679658952496954960e-02,1.532858880000000090e-01,-1.532858880000000090e-01,9.657010944000001373e+00
1.691117487074093568e+18,-8.526187576126675188e-03,8.526187576126675188e-03,3.532277710109622132e-02,4.598576639999999993e-01,0.000000000000000000e+00,9.657010944000001373e+00
1.691117487084093696e+18,0.000000000000000000e+00,1.218026796589524903e-02,3.166869671132764574e-02,3.065717760000000180e-01,-1.532858880000000090e-01,9.657010944000001373e+00
1.691117487094093568e+18,3.654080389768574709e-03,1.218026796589524903e-03,3.532277710109622132e-02,0.000000000000000000e+00,0.000000000000000000e+00,9.657010944000001373e+00
1.691117487104093440e+18,2.436053593179049806e-03,8.526187576126675188e-03,2.923264311814859767e-02,3.065717760000000180e-01,-1.532858880000000090e-01,9.503725056000000393e+00
1.691117487114093568e+18,1.218026796589524903e-03,1.218026796589524903e-02,4.019488428745432440e-02,3.065717760000000180e-01,-1.532858880000000090e-01,9.657010944000001373e+00
1.691117487124093440e+18,0.000000000000000000e+00,9.744214372716199224e-03,3.897685749086479690e-02,1.532858880000000090e-01,-1.532858880000000090e-01,9.503725056000000393e+00
1.691117487134093568e+18,6.090133982947624515e-03,3.654080389768574709e-03,3.410475030450670075e-02,1.532858880000000090e-01,-1.532858880000000090e-01,9.503725056000000393e+00
1.691117487144093440e+18,-3.654080389768574709e-03,1.096224116930572499e-02,3.288672350791717325e-02,1.532858880000000090e-01,-1.532858880000000090e-01,9.657010944000001373e+00
1.691117487154093568e+18,1.218026796589524903e-02,1.218026796589524903e-02,2.679658952496954960e-02,3.065717760000000180e-01,-1.532858880000000090e-01,9.503725056000000393e+00
1.691117487164093440e+18,0.000000000000000000e+00,1.218026796589524903e-02,3.045066991473812518e-02,6.131435520000000361e-01,-1.532858880000000090e-01,9.503725056000000393e+00
1.691117487174093568e+18,-9.744214372716199224e-03,1.583434835566382287e-02,3.775883069427527633e-02,3.065717760000000180e-01,-1.532858880000000090e-01,9.503725056000000393e+00
1.691117487184093440e+18,-3.654080389768574709e-03,7.308160779537149418e-03,2.801461632155907364e-02,1.532858880000000090e-01,-3.065717760000000180e-01,9.657010944000001373e+00
1.691117487194093568e+18,4.872107186358099612e-03,9.744214372716199224e-03,2.923264311814859767e-02,4.598576639999999993e-01,-1.532858880000000090e-01,9.503725056000000393e+00
1.691117487204093440e+18,1.218026796589524903e-03,6.090133982947624515e-03,4.019488428745432440e-02,3.065717760000000180e-01,-3.065717760000000180e-01,9.503725056000000393e+00
1.691117487214093568e+18,4.872107186358099612e-03,3.654080389768574709e-03,3.045066991473812518e-02,4.598576639999999993e-01,-3.065717760000000180e-01,9.503725056000000393e+00
1.691117487224093440e+18,1.339829476248477480e-02,8.526187576126675188e-03,2.801461632155907364e-02,6.131435520000000361e-01,-1.532858880000000090e-01,9.350439168000001189e+00
1.691117487234093312e+18,-1.218026796589524903e-03,8.526187576126675188e-03,3.288672350791717325e-02,1.532858880000000090e-01,-1.532858880000000090e-01,9.503725056000000393e+00
1.691117487244093440e+18,6.090133982947624515e-03,8.526187576126675188e-03,3.166869671132764574e-02,1.532858880000000090e-01,-1.532858880000000090e-01,9.503725056000000393e+00
1.691117487254093312e+18,-1.218026796589524903e-03,1.827040194884287441e-02,3.288672350791717325e-02,1.532858880000000090e-01,-1.532858880000000090e-01,9.657010944000001373e+00
1.691117487264093440e+18,6.090133982947624515e-03,4.872107186358099612e-03,3.410475030450670075e-02,4.598576639999999993e-01,-1.532858880000000090e-01,9.657010944000001373e+00
1.691117487274093312e+18,0.000000000000000000e+00,1.583434835566382287e-02,2.923264311814859767e-02,1.532858880000000090e-01,-1.532858880000000090e-01,9.657010944000001373e+00
1.691117487284093440e+18,4.872107186358099612e-03,6.090133982947624515e-03,3.166869671132764574e-02,3.065717760000000180e-01,-1.532858880000000090e-01,9.503725056000000393e+00
1.691117487294093312e+18,2.436053593179049806e-03,1.096224116930572499e-02,3.532277710109622132e-02,1.532858880000000090e-01,-1.532858880000000090e-01,9.503725056000000393e+00
1.691117487304093440e+18,2.436053593179049806e-03,1.218026796589524903e-02,2.923264311814859767e-02,1.532858880000000090e-01,0.000000000000000000e+00,9.503725056000000393e+00
1.691117487314093312e+18,-4.872107186358099612e-03,1.339829476248477480e-02,4.263093788063337247e-02,3.065717760000000180e-01,0.000000000000000000e+00,9.657010944000001373e+00
1.691117487324093696e+18,-1.339829476248477480e-02,9.744214372716199224e-03,3.045066991473812518e-02,3.065717760000000180e-01,-1.532858880000000090e-01,9.657010944000001373e+00
1.691117487334093568e+18,-2.436053593179049806e-03,1.218026796589524903e-02,2.923264311814859767e-02,0.000000000000000000e+00,0.000000000000000000e+00,9.503725056000000393e+00
1.691117487344093440e+18,4.872107186358099612e-03,9.744214372716199224e-03,2.679658952496954960e-02,4.598576639999999993e-01,0.000000000000000000e+00,9.503725056000000393e+00
1.691117487354093568e+18,-4.872107186358099612e-03,8.526187576126675188e-03,3.775883069427527633e-02,0.000000000000000000e+00,-3.065717760000000180e-01,9.810296832000000578e+00
1.691117487364093440e+18,4.872107186358099612e-03,6.090133982947624515e-03,3.410475030450670075e-02,1.532858880000000090e-01,-1.532858880000000090e-01,9.503725056000000393e+00
1.691117487374093568e+18,-2.436053593179049806e-03,1.096224116930572499e-02,2.557856272838002556e-02,1.532858880000000090e-01,0.000000000000000000e+00,9.657010944000001373e+00
1.691117487384093440e+18,-2.436053593179049806e-03,6.090133982947624515e-03,2.923264311814859767e-02,3.065717760000000180e-01,-1.532858880000000090e-01,9.503725056000000393e+00
1.691117487394093568e+18,0.000000000000000000e+00,9.744214372716199224e-03,3.045066991473812518e-02,7.664294400000000174e-01,-1.532858880000000090e-01,9.503725056000000393e+00
1.691117487404093440e+18,-7.308160779537149418e-03,1.583434835566382287e-02,4.263093788063337247e-02,3.065717760000000180e-01,-1.532858880000000090e-01,9.657010944000001373e+00
1.691117487414093568e+18,3.654080389768574709e-03,1.218026796589524903e-02,3.410475030450670075e-02,1.532858880000000090e-01,-1.532858880000000090e-01,9.657010944000001373e+00
1.691117487424093440e+18,-4.872107186358099612e-03,1.583434835566382287e-02,3.045066991473812518e-02,3.065717760000000180e-01,-3.065717760000000180e-01,9.503725056000000393e+00
1.691117487434093568e+18,6.090133982947624515e-03,7.308160779537149418e-03,2.436053593179049806e-02,6.131435520000000361e-01,-1.532858880000000090e-01,9.503725056000000393e+00
1.691117487444093440e+18,-1.218026796589524903e-03,1.339829476248477480e-02,3.288672350791717325e-02,1.532858880000000090e-01,0.000000000000000000e+00,9.503725056000000393e+00
1.691117487454093568e+18,-7.308160779537149418e-03,1.218026796589524903e-02,2.679658952496954960e-02,1.532858880000000090e-01,-1.532858880000000090e-01,9.503725056000000393e+00
1.691117487464093440e+18,8.526187576126675188e-03,8.526187576126675188e-03,3.775883069427527633e-02,3.065717760000000180e-01,0.000000000000000000e+00,9.657010944000001373e+00
1.691117487474093312e+18,4.872107186358099612e-03,7.308160779537149418e-03,2.679658952496954960e-02,1.532858880000000090e-01,-1.532858880000000090e-01,9.503725056000000393e+00
1.691117487484093440e+18,-8.526187576126675188e-03,2.436053593179049806e-03,3.654080389768574882e-02,1.532858880000000090e-01,-1.532858880000000090e-01,9.657010944000001373e+00
1.691117487494093312e+18,-2.436053593179049806e-03,1.705237515225335038e-02,2.801461632155907364e-02,3.065717760000000180e-01,-1.532858880000000090e-01,9.350439168000001189e+00
1.691117487504093440e+18,6.090133982947624515e-03,1.096224116930572499e-02,2.801461632155907364e-02,3.065717760000000180e-01,-1.532858880000000090e-01,9.503725056000000393e+00
1.691117487514093312e+18,2.436053593179049806e-03,6.090133982947624515e-03,3.532277710109622132e-02,-3.065717760000000180e-01,-1.532858880000000090e-01,9.350439168000001189e+00
1.691117487524093440e+18,-4.872107186358099612e-03,6.090133982947624515e-03,2.679658952496954960e-02,1.532858880000000090e-01,0.000000000000000000e+00,9.503725056000000393e+00
1.691117487534093312e+18,-1.218026796589524903e-03,4.872107186358099612e-03,3.532277710109622132e-02,4.598576639999999993e-01,-1.532858880000000090e-01,9.657010944000001373e+00
1.691117487544093440e+18,-3.654080389768574709e-03,1.218026796589524903e-02,3.654080389768574882e-02,1.532858880000000090e-01,0.000000000000000000e+00,9.657010944000001373e+00
1.691117487554093312e+18,-3.654080389768574709e-03,6.090133982947624515e-03,3.532277710109622132e-02,3.065717760000000180e-01,-1.532858880000000090e-01,9.503725056000000393e+00
1.691117487564093440e+18,-3.654080389768574709e-03,4.872107186358099612e-03,2.801461632155907364e-02,1.532858880000000090e-01,-1.532858880000000090e-01,9.503725056000000393e+00
1.691117487574093568e+18,3.654080389768574709e-03,9.744214372716199224e-03,3.166869671132764574e-02,3.065717760000000180e-01,-1.532858880000000090e-01,9.503725056000000393e+00
1.691117487584093696e+18,-9.744214372716199224e-03,1.827040194884287441e-02,3.410475030450670075e-02,1.532858880000000090e-01,-1.532858880000000090e-01,9.657010944000001373e+00
1.691117487594093568e+18,7.308160779537149418e-03,1.339829476248477480e-02,2.436053593179049806e-02,1.532858880000000090e-01,0.000000000000000000e+00,9.657010944000001373e+00
1.691117487604093440e+18,3.654080389768574709e-03,6.090133982947624515e-03,3.288672350791717325e-02,3.065717760000000180e-01,-1.532858880000000090e-01,9.503725056000000393e+00
1.691117487614093568e+18,0.000000000000000000e+00,1.218026796589524903e-02,3.410475030450670075e-02,3.065717760000000180e-01,-1.532858880000000090e-01,9.503725056000000393e+00
1.691117487624093440e+18,7.308160779537149418e-03,8.526187576126675188e-03,2.679658952496954960e-02,4.598576639999999993e-01,-1.532858880000000090e-01,9.503725056000000393e+00
1.691117487634093568e+18,-3.654080389768574709e-03,6.090133982947624515e-03,3.045066991473812518e-02,3.065717760000000180e-01,-1.532858880000000090e-01,9.503725056000000393e+00
1.691117487644093440e+18,-6.090133982947624515e-03,9.744214372716199224e-03,2.679658952496954960e-02,1.532858880000000090e-01,-1.532858880000000090e-01,9.657010944000001373e+00
1.691117487654093568e+18,-2.436053593179049806e-03,6.090133982947624515e-03,3.166869671132764574e-02,1.532858880000000090e-01,-1.532858880000000090e-01,9.657010944000001373e+00
1.691117487664093440e+18,-6.090133982947624515e-03,7.308160779537149418e-03,3.166869671132764574e-02,0.000000000000000000e+00,0.000000000000000000e+00,9.503725056000000393e+00
1.691117487674093568e+18,-1.218026796589524903e-03,1.218026796589524903e-02,1.948842874543239845e-02,4.598576639999999993e-01,-1.532858880000000090e-01,9.350439168000001189e+00
1.691117487684093440e+18,-1.218026796589524903e-03,9.744214372716199224e-03,3.045066991473812518e-02,0.000000000000000000e+00,-1.532858880000000090e-01,9.503725056000000393e+00
1.691117487694093568e+18,-9.744214372716199224e-03,1.096224116930572499e-02,3.897685749086479690e-02,0.000000000000000000e+00,-1.532858880000000090e-01,9.657010944000001373e+00
1.691117487704093440e+18,3.654080389768574709e-03,1.339829476248477480e-02,3.532277710109622132e-02,3.065717760000000180e-01,0.000000000000000000e+00,9.503725056000000393e+00
1.691117487714093568e+18,-2.436053593179049806e-03,9.744214372716199224e-03,3.897685749086479690e-02,3.065717760000000180e-01,-1.532858880000000090e-01,9.657010944000001373e+00
1.691117487724093440e+18,3.654080389768574709e-03,9.744214372716199224e-03,2.801461632155907364e-02,0.000000000000000000e+00,-1.532858880000000090e-01,9.503725056000000393e+00
1.691117487734093312e+18,-1.218026796589524903e-03,1.583434835566382287e-02,3.045066991473812518e-02,3.065717760000000180e-01,-1.532858880000000090e-01,9.657010944000001373e+00
1.691117487744093440e+18,2.436053593179049806e-03,8.526187576126675188e-03,2.801461632155907364e-02,4.598576639999999993e-01,0.000000000000000000e+00,9.657010944000001373e+00
1.691117487754093312e+18,-6.090133982947624515e-03,7.308160779537149418e-03,3.654080389768574882e-02,3.065717760000000180e-01,-1.532858880000000090e-01,9.503725056000000393e+00
1.691117487764093440e+18,3.654080389768574709e-03,8.526187576126675188e-03,3.288672350791717325e-02,3.065717760000000180e-01,-1.532858880000000090e-01,9.657010944000001373e+00
1.691117487774093312e+18,-7.308160779537149418e-03,1.583434835566382287e-02,2.557856272838002556e-02,1.532858880000000090e-01,-1.532858880000000090e-01,9.657010944000001373e+00
1.691117487784093440e+18,0.000000000000000000e+00,1.096224116930572499e-02,2.436053593179049806e-02,-1.532858880000000090e-01,-1.532858880000000090e-01,9.657010944000001373e+00
1.691117487794093312e+18,-1.218026796589524903e-03,7.308160779537149418e-03,3.045066991473812518e-02,3.065717760000000180e-01,-1.532858880000000090e-01,9.657010944000001373e+00
1.691117487804093440e+18,-2.436053593179049806e-03,3.654080389768574709e-03,3.166869671132764574e-02,1.532858880000000090e-01,-1.532858880000000090e-01,9.350439168000001189e+00
1.691117487814093312e+18,-7.308160779537149418e-03,1.096224116930572499e-02,3.532277710109622132e-02,3.065717760000000180e-01,-3.065717760000000180e-01,9.503725056000000393e+00
1.691117487824093696e+18,-4.872107186358099612e-03,1.583434835566382287e-02,3.166869671132764574e-02,-1.532858880000000090e-01,-1.532858880000000090e-01,9.810296832000000578e+00
1.691117487834093568e+18,-6.090133982947624515e-03,1.096224116930572499e-02,3.410475030450670075e-02,3.065717760000000180e-01,-1.532858880000000090e-01,9.503725056000000393e+00
1.691117487844093440e+18,-1.218026796589524903e-03,7.308160779537149418e-03,3.166869671132764574e-02,3.065717760000000180e-01,-1.532858880000000090e-01,9.503725056000000393e+00
1.691117487854093568e+18,8.526187576126675188e-03,8.526187576126675188e-03,3.045066991473812518e-02,1.532858880000000090e-01,-1.532858880000000090e-01,9.657010944000001373e+00
1.691117487864093440e+18,6.090133982947624515e-03,3.654080389768574709e-03,3.166869671132764574e-02,1.532858880000000090e-01,-1.532858880000000090e-01,9.503725056000000393e+00
1.691117487874093568e+18,0.000000000000000000e+00,7.308160779537149418e-03,3.045066991473812518e-02,1.532858880000000090e-01,-1.532858880000000090e-01,9.657010944000001373e+00
1.691117487884093440e+18,9.744214372716199224e-03,1.583434835566382287e-02,3.045066991473812518e-02,3.065717760000000180e-01,-3.065717760000000180e-01,9.657010944000001373e+00
1.691117487894093568e+18,8.526187576126675188e-03,1.218026796589524903e-03,2.679658952496954960e-02,4.598576639999999993e-01,-1.532858880000000090e-01,9.503725056000000393e+00
1.691117487904093440e+18,4.872107186358099612e-03,1.339829476248477480e-02,3.654080389768574882e-02,6.131435520000000361e-01,-1.532858880000000090e-01,9.503725056000000393e+00
1.691117487914093568e+18,1.218026796589524903e-03,6.090133982947624515e-03,3.045066991473812518e-02,4.598576639999999993e-01,0.000000000000000000e+00,9.503725056000000393e+00
1.691117487924093440e+18,1.218026796589524903e-03,7.308160779537149418e-03,2.436053593179049806e-02,1.532858880000000090e-01,-1.532858880000000090e-01,9.657010944000001373e+00
1.691117487934093568e+18,3.654080389768574709e-03,7.308160779537149418e-03,3.654080389768574882e-02,1.532858880000000090e-01,-1.532858880000000090e-01,9.350439168000001189e+00
1.691117487944093440e+18,3.654080389768574709e-03,1.948842874543239845e-02,2.801461632155907364e-02,4.598576639999999993e-01,-1.532858880000000090e-01,9.503725056000000393e+00
1.691117487954093568e+18,2.436053593179049806e-03,4.872107186358099612e-03,3.897685749086479690e-02,1.532858880000000090e-01,-1.532858880000000090e-01,9.503725056000000393e+00
1.691117487964093440e+18,1.096224116930572499e-02,1.461632155907429884e-02,2.801461632155907364e-02,4.598576639999999993e-01,-1.532858880000000090e-01,9.503725056000000393e+00
1.691117487974093312e+18,2.436053593179049806e-03,1.218026796589524903e-02,3.775883069427527633e-02,3.065717760000000180e-01,-1.532858880000000090e-01,9.503725056000000393e+00
1.691117487984093440e+18,-7.308160779537149418e-03,6.090133982947624515e-03,4.019488428745432440e-02,3.065717760000000180e-01,-1.532858880000000090e-01,9.657010944000001373e+00
1.691117487994093312e+18,-3.654080389768574709e-03,1.096224116930572499e-02,2.801461632155907364e-02,3.065717760000000180e-01,-1.532858880000000090e-01,9.657010944000001373e+00
1.691117488004093440e+18,-3.654080389768574709e-03,1.096224116930572499e-02,2.557856272838002556e-02,3.065717760000000180e-01,-1.532858880000000090e-01,9.503725056000000393e+00
1.691117488014093312e+18,7.308160779537149418e-03,1.096224116930572499e-02,3.532277710109622132e-02,4.598576639999999993e-01,-1.532858880000000090e-01,9.503725056000000393e+00
1.691117488024093440e+18,0.000000000000000000e+00,8.526187576126675188e-03,2.801461632155907364e-02,1.532858880000000090e-01,-1.532858880000000090e-01,9.657010944000001373e+00
1.691117488034093312e+18,0.000000000000000000e+00,1.827040194884287441e-02,3.045066991473812518e-02,1.532858880000000090e-01,-1.532858880000000090e-01,9.350439168000001189e+00
1.691117488044093440e+18,3.654080389768574709e-03,8.526187576126675188e-03,2.801461632155907364e-02,1.532858880000000090e-01,0.000000000000000000e+00,9.350439168000001189e+00
1.691117488054093312e+18,0.000000000000000000e+00,6.090133982947624515e-03,3.166869671132764574e-02,1.532858880000000090e-01,0.000000000000000000e+00,9.657010944000001373e+00
1.691117488064093440e+18,6.090133982947624515e-03,1.096224116930572499e-02,2.557856272838002556e-02,0.000000000000000000e+00,-1.532858880000000090e-01,9.503725056000000393e+00
1.691117488074093568e+18,0.000000000000000000e+00,3.654080389768574709e-03,2.801461632155907364e-02,1.532858880000000090e-01,0.000000000000000000e+00,9.657010944000001373e+00
1.691117488084093696e+18,0.000000000000000000e+00,7.308160779537149418e-03,3.045066991473812518e-02,6.131435520000000361e-01,-1.532858880000000090e-01,9.503725056000000393e+00
1.691117488094093568e+18,2.436053593179049806e-03,1.218026796589524903e-02,3.410475030450670075e-02,0.000000000000000000e+00,0.000000000000000000e+00,9.657010944000001373e+00
1.691117488104093440e+18,-1.218026796589524903e-03,1.218026796589524903e-02,3.532277710109622132e-02,1.532858880000000090e-01,-1.532858880000000090e-01,9.350439168000001189e+00
1.691117488114093568e+18,-7.308160779537149418e-03,7.308160779537149418e-03,3.288672350791717325e-02,1.532858880000000090e-01,-1.532858880000000090e-01,9.810296832000000578e+00
1.691117488124093440e+18,-4.872107186358099612e-03,9.744214372716199224e-03,3.166869671132764574e-02,1.532858880000000090e-01,-1.532858880000000090e-01,9.503725056000000393e+00
1.691117488134093568e+18,-1.096224116930572499e-02,4.872107186358099612e-03,2.801461632155907364e-02,1.532858880000000090e-01,-1.532858880000000090e-01,9.657010944000001373e+00
1.691117488144093440e+18,7.308160779537149418e-03,8.526187576126675188e-03,2.436053593179049806e-02,0.000000000000000000e+00,-1.532858880000000090e-01,9.503725056000000393e+00
1.691117488154093568e+18,6.090133982947624515e-03,9.744214372716199224e-03,3.166869671132764574e-02,4.598576639999999993e-01,-1.532858880000000090e-01,9.503725056000000393e+00
1.691117488164093440e+18,1.218026796589524903e-03,9.744214372716199224e-03,3.532277710109622132e-02,3.065717760000000180e-01,-1.532858880000000090e-01,9.503725056000000393e+00
1.691117488174093568e+18,0.000000000000000000e+00,1.096224116930572499e-02,3.410475030450670075e-02,3.065717760000000180e-01,-1.532858880000000090e-01,9.657010944000001373e+00
1.691117488184093440e+18,-3.654080389768574709e-03,8.526187576126675188e-03,2.557856272838002556e-02,1.532858880000000090e-01,-1.532858880000000090e-01,9.503725056000000393e+00
1.691117488194093568e+18,-4.872107186358099612e-03,1.705237515225335038e-02,3.288672350791717325e-02,0.000000000000000000e+00,-1.532858880000000090e-01,9.657010944000001373e+00
1.691117488204093440e+18,3.654080389768574709e-03,9.744214372716199224e-03,2.314250913520097402e-02,1.532858880000000090e-01,-1.532858880000000090e-01,9.503725056000000393e+00
1.691117488214093568e+18,8.526187576126675188e-03,4.872107186358099612e-03,2.801461632155907364e-02,1.532858880000000090e-01,-1.532858880000000090e-01,9.657010944000001373e+00
1.691117488224093440e+18,-2.436053593179049806e-03,8.526187576126675188e-03,3.410475030450670075e-02,0.000000000000000000e+00,-1.532858880000000090e-01,9.657010944000001373e+00
1.691117488234093312e+18,1.218026796589524903e-02,1.583434835566382287e-02,3.410475030450670075e-02,1.532858880000000090e-01,-1.532858880000000090e-01,9.503725056000000393e+00
1.691117488244093440e+18,-1.218026796589524903e-03,1.339829476248477480e-02,3.166869671132764574e-02,0.000000000000000000e+00,-3.065717760000000180e-01,9.657010944000001373e+00
1.691117488254093312e+18,1.218026796589524903e-03,7.308160779537149418e-03,3.532277710109622132e-02,1.532858880000000090e-01,-1.532858880000000090e-01,9.657010944000001373e+00
1.691117488264093440e+18,4.872107186358099612e-03,1.218026796589524903e-02,3.166869671132764574e-02,3.065717760000000180e-01,-1.532858880000000090e-01,9.657010944000001373e+00
1.691117488274093312e+18,4.872107186358099612e-03,1.096224116930572499e-02,3.410475030450670075e-02,3.065717760000000180e-01,0.000000000000000000e+00,9.810296832000000578e+00
1.691117488284093440e+18,4.872107186358099612e-03,1.218026796589524903e-02,2.923264311814859767e-02,4.598576639999999993e-01,-3.065717760000000180e-01,9.503725056000000393e+00
1.691117488294093312e+18,-3.654080389768574709e-03,9.744214372716199224e-03,3.654080389768574882e-02,0.000000000000000000e+00,-1.532858880000000090e-01,9.503725056000000393e+00
1.691117488304093440e+18,-6.090133982947624515e-03,1.218026796589524903e-02,2.436053593179049806e-02,1.532858880000000090e-01,-1.532858880000000090e-01,9.503725056000000393e+00
1.691117488314093312e+18,4.872107186358099612e-03,1.218026796589524903e-02,3.288672350791717325e-02,3.065717760000000180e-01,-1.532858880000000090e-01,9.503725056000000393e+00
1.691117488324093696e+18,1.218026796589524903e-03,7.308160779537149418e-03,3.654080389768574882e-02,0.000000000000000000e+00,-1.532858880000000090e-01,9.350439168000001189e+00
1.691117488334093568e+18,-8.526187576126675188e-03,9.744214372716199224e-03,3.045066991473812518e-02,3.065717760000000180e-01,-3.065717760000000180e-01,9.350439168000001189e+00
1.691117488344093440e+18,3.654080389768574709e-03,1.461632155907429884e-02,3.532277710109622132e-02,4.598576639999999993e-01,-1.532858880000000090e-01,9.503725056000000393e+00
1.691117488354093568e+18,0.000000000000000000e+00,1.218026796589524903e-02,3.045066991473812518e-02,0.000000000000000000e+00,-1.532858880000000090e-01,9.657010944000001373e+00
1.691117488364093440e+18,9.744214372716199224e-03,1.096224116930572499e-02,3.532277710109622132e-02,-3.065717760000000180e-01,-1.532858880000000090e-01,9.043867392000001004e+00
1.691117488374093568e+18,0.000000000000000000e+00,1.705237515225335038e-02,3.410475030450670075e-02,1.532858880000000090e-01,-1.532858880000000090e-01,9.657010944000001373e+00
1.691117488384093440e+18,7.308160779537149418e-03,1.827040194884287441e-02,3.410475030450670075e-02,3.065717760000000180e-01,-3.065717760000000180e-01,9.503725056000000393e+00
1.691117488394093568e+18,9.744214372716199224e-03,1.461632155907429884e-02,3.410475030450670075e-02,1.532858880000000090e-01,0.000000000000000000e+00,9.657010944000001373e+00
1.691117488404093440e+18,-8.526187576126675188e-03,1.827040194884287441e-02,2.801461632155907364e-02,1.532858880000000090e-01,-3.065717760000000180e-01,9.503725056000000393e+00
1.691117488414093568e+18,1.218026796589524903e-03,9.744214372716199224e-03,3.166869671132764574e-02,1.532858880000000090e-01,-1.532858880000000090e-01,9.503725056000000393e+00
1.691117488424093440e+18,-1.461632155907429884e-02,7.308160779537149418e-03,3.166869671132764574e-02,1.532858880000000090e-01,0.000000000000000000e+00,9.657010944000001373e+00
1.691117488434093568e+18,3.654080389768574709e-03,6.090133982947624515e-03,3.532277710109622132e-02,1.532858880000000090e-01,-1.532858880000000090e-01,9.657010944000001373e+00
1.691117488444093440e+18,2.436053593179049806e-03,9.744214372716199224e-03,2.923264311814859767e-02,1.532858880000000090e-01,-1.532858880000000090e-01,9.503725056000000393e+00
1.691117488454093568e+18,3.654080389768574709e-03,1.461632155907429884e-02,3.410475030450670075e-02,1.532858880000000090e-01,-1.532858880000000090e-01,9.657010944000001373e+00
1.691117488464093440e+18,-4.872107186358099612e-03,1.218026796589524903e-02,2.801461632155907364e-02,3.065717760000000180e-01,-1.532858880000000090e-01,9.657010944000001373e+00
1.691117488474093312e+18,-1.218026796589524903e-03,1.096224116930572499e-02,3.166869671132764574e-02,1.532858880000000090e-01,0.000000000000000000e+00,9.657010944000001373e+00
1.691117488484093440e+18,1.218026796589524903e-03,1.096224116930572499e-02,3.410475030450670075e-02,1.532858880000000090e-01,-1.532858880000000090e-01,9.503725056000000393e+00
1.691117488494093312e+18,-1.218026796589524903e-03,7.308160779537149418e-03,3.166869671132764574e-02,0.000000000000000000e+00,-1.532858880000000090e-01,9.657010944000001373e+00
1.691117488504093440e+18,6.090133982947624515e-03,7.308160779537149418e-03,3.288672350791717325e-02,6.131435520000000361e-01,-1.532858880000000090e-01,9.810296832000000578e+00
1.691117488514093312e+18,3.654080389768574709e-03,1.096224116930572499e-02,3.532277710109622132e-02,1.532858880000000090e-01,-1.532858880000000090e-01,9.657010944000001373e+00
1.691117488524093440e+18,-2.436053593179049806e-03,1.218026796589524903e-02,3.410475030450670075e-02,1.532858880000000090e-01,-1.532858880000000090e-01,9.657010944000001373e+00
1.691117488534093312e+18,0.000000000000000000e+00,8.526187576126675188e-03,3.166869671132764574e-02,0.000000000000000000e+00,-1.532858880000000090e-01,9.503725056000000393e+00
1.691117488544093440e+18,1.218026796589524903e-03,1.096224116930572499e-02,3.045066991473812518e-02,3.065717760000000180e-01,-1.532858880000000090e-01,9.503725056000000393e+00
1.691117488554093312e+18,-2.436053593179049806e-03,1.461632155907429884e-02,2.557856272838002556e-02,1.532858880000000090e-01,-1.532858880000000090e-01,9.503725056000000393e+00
1.691117488564093440e+18,1.461632155907429884e-02,1.096224116930572499e-02,3.166869671132764574e-02,1.532858880000000090e-01,-1.532858880000000090e-01,9.503725056000000393e+00
1.691117488574093568e+18,2.436053593179049806e-03,1.339829476248477480e-02,3.288672350791717325e-02,1.532858880000000090e-01,-1.532858880000000090e-01,9.657010944000001373e+00
1.691117488584093696e+18,-6.090133982947624515e-03,9.744214372716199224e-03,2.436053593179049806e-02,3.065717760000000180e-01,-1.532858880000000090e-01,9.503725056000000393e+00
1.691117488594093568e+18,2.436053593179049806e-03,1.096224116930572499e-02,3.166869671132764574e-02,1.532858880000000090e-01,0.000000000000000000e+00,9.503725056000000393e+00
1.691117488604093440e+18,2.436053593179049806e-03,7.308160779537149418e-03,3.410475030450670075e-02,3.065717760000000180e-01,-1.532858880000000090e-01,9.657010944000001373e+00
1.691117488614093568e+18,-3.654080389768574709e-03,8.526187576126675188e-03,3.654080389768574882e-02,1.532858880000000090e-01,-1.532858880000000090e-01,9.503725056000000393e+00
1.691117488624093440e+18,0.000000000000000000e+00,9.744214372716199224e-03,2.801461632155907364e-02,3.065717760000000180e-01,-1.532858880000000090e-01,9.657010944000001373e+00
1.691117488634093568e+18,8.526187576126675188e-03,1.096224116930572499e-02,3.410475030450670075e-02,3.065717760000000180e-01,-1.532858880000000090e-01,9.503725056000000393e+00
1.691117488644093440e+18,4.872107186358099612e-03,8.526187576126675188e-03,3.166869671132764574e-02,3.065717760000000180e-01,-1.532858880000000090e-01,9.503725056000000393e+00
1.691117488654093568e+18,7.308160779537149418e-03,1.339829476248477480e-02,2.923264311814859767e-02,0.000000000000000000e+00,-3.065717760000000180e-01,9.657010944000001373e+00
1.691117488664093440e+18,-2.436053593179049806e-03,1.339829476248477480e-02,3.897685749086479690e-02,1.532858880000000090e-01,-1.532858880000000090e-01,9.503725056000000393e+00
1.691117488674093568e+18,-3.654080389768574709e-03,1.096224116930572499e-02,3.775883069427527633e-02,3.065717760000000180e-01,-1.532858880000000090e-01,9.657010944000001373e+00
1.691117488684093440e+18,2.436053593179049806e-03,6.090133982947624515e-03,3.288672350791717325e-02,1.532858880000000090e-01,-1.532858880000000090e-01,9.657010944000001373e+00
1.691117488694093568e+18,2.436053593179049806e-03,1.461632155907429884e-02,3.775883069427527633e-02,1.532858880000000090e-01,0.000000000000000000e+00,9.657010944000001373e+00
1.691117488704093440e+18,6.090133982947624515e-03,1.339829476248477480e-02,4.750304506699147555e-02,3.065717760000000180e-01,0.000000000000000000e+00,9.503725056000000393e+00
1.691117488714093568e+18,-2.436053593179049806e-03,1.583434835566382287e-02,4.872107186358099612e-02,0.000000000000000000e+00,0.000000000000000000e+00,9.657010944000001373e+00
1.691117488724093440e+18,3.654080389768574709e-03,1.339829476248477480e-02,6.211936662606577092e-02,3.065717760000000180e-01,0.000000000000000000e+00,9.657010944000001373e+00
1.691117488734093312e+18,3.654080389768574709e-03,2.192448233861144999e-02,7.064555420219244264e-02,0.000000000000000000e+00,1.532858880000000090e-01,9.810296832000000578e+00
1.691117488744093440e+18,6.090133982947624515e-03,1.583434835566382287e-02,9.744214372716199224e-02,9.197153279999999986e-01,3.065717760000000180e-01,9.503725056000000393e+00
1.691117488754093312e+18,-7.308160779537149418e-03,2.801461632155907364e-02,1.108404384896467670e-01,7.664294400000000174e-01,6.131435520000000361e-01,9.503725056000000393e+00
1.691117488764093440e+18,1.218026796589524903e-02,2.923264311814859767e-02,1.315468940316686930e-01,6.131435520000000361e-01,4.598576639999999993e-01,9.810296832000000578e+00
1.691117488774093312e+18,-9.744214372716199224e-03,1.948842874543239845e-02,1.583434835566382426e-01,9.197153279999999986e-01,6.131435520000000361e-01,9.657010944000001373e+00
1.691117488784093440e+18,-3.654080389768574709e-03,1.827040194884287441e-02,1.924482338611449572e-01,6.131435520000000361e-01,3.065717760000000180e-01,9.350439168000001189e+00
1.691117488794093312e+18,2.436053593179049806e-03,2.557856272838002556e-02,2.180267965895249793e-01,9.197153279999999986e-01,3.065717760000000180e-01,9.503725056000000393e+00
1.691117488804093440e+18,-4.872107186358099612e-03,2.192448233861144999e-02,2.570036540803897762e-01,7.664294400000000174e-01,3.065717760000000180e-01,9.657010944000001373e+00
1.691117488814093312e+18,-1.218026796589524903e-03,1.948842874543239845e-02,2.764920828258221608e-01,9.197153279999999986e-01,3.065717760000000180e-01,9.503725056000000393e+00
1.691117488824093696e+18,-1.218026796589524903e-03,1.705237515225335038e-02,3.154689403166869854e-01,6.131435520000000361e-01,3.065717760000000180e-01,9.503725056000000393e+00
1.691117488834093568e+18,0.000000000000000000e+00,2.192448233861144999e-02,3.520097442143726996e-01,9.197153279999999986e-01,1.532858880000000090e-01,9.503725056000000393e+00
1.691117488844093440e+18,4.872107186358099612e-03,1.461632155907429884e-02,3.751522533495736944e-01,6.131435520000000361e-01,3.065717760000000180e-01,9.657010944000001373e+00
1.691117488854093568e+18,-8.526187576126675188e-03,1.583434835566382287e-02,3.946406820950060790e-01,9.197153279999999986e-01,3.065717760000000180e-01,9.503725056000000393e+00
1.691117488864093440e+18,1.218026796589524903e-03,1.705237515225335038e-02,4.263093788063337386e-01,9.197153279999999986e-01,1.532858880000000090e-01,9.197153280000000208e+00
1.691117488874093568e+18,2.436053593179049806e-03,1.583434835566382287e-02,4.518879415347137884e-01,9.197153279999999986e-01,4.598576639999999993e-01,9.503725056000000393e+00
1.691117488884093440e+18,6.090133982947624515e-03,1.705237515225335038e-02,4.823386114494518928e-01,6.131435520000000361e-01,0.000000000000000000e+00,9.657010944000001373e+00
1.691117488894093568e+18,4.872107186358099612e-03,2.436053593179049806e-02,5.127892813641899972e-01,7.664294400000000174e-01,3.065717760000000180e-01,9.350439168000001189e+00
1.691117488904093440e+18,1.218026796589524903e-02,1.461632155907429884e-02,5.444579780755176568e-01,1.073001215999999980e+00,1.532858880000000090e-01,9.657010944000001373e+00
1.691117488914093568e+18,8.526187576126675188e-03,1.948842874543239845e-02,5.785627283800243159e-01,1.226287104000000072e+00,3.065717760000000180e-01,9.503725056000000393e+00
1.691117488924093440e+18,7.308160779537149418e-03,7.308160779537149418e-03,6.029232643118148660e-01,7.664294400000000174e-01,1.532858880000000090e-01,9.503725056000000393e+00
1.691117488934093568e+18,7.308160779537149418e-03,1.948842874543239845e-02,6.285018270401948604e-01,7.664294400000000174e-01,3.065717760000000180e-01,9.503725056000000393e+00
1.691117488944093440e+18,1.096224116930572499e-02,8.526187576126675188e-03,6.443361753958587457e-01,9.197153279999999986e-01,1.532858880000000090e-01,9.657010944000001373e+00
1.691117488954093568e+18,1.339829476248477480e-02,1.218026796589524903e-02,6.711327649208282953e-01,4.598576639999999993e-01,1.532858880000000090e-01,9.657010944000001373e+00
1.691117488964093440e+18,2.436053593179049806e-03,2.070645554202192595e-02,6.796589524969549601e-01,6.131435520000000361e-01,0.000000000000000000e+00,9.503725056000000393e+00
1.691117488974093312e+18,9.744214372716199224e-03,1.705237515225335038e-02,6.845310596833130701e-01,4.598576639999999993e-01,-1.532858880000000090e-01,9.350439168000001189e+00
1.691117488984093440e+18,1.096224116930572499e-02,8.526187576126675188e-03,6.833130328867235148e-01,7.664294400000000174e-01,-3.065717760000000180e-01,9.657010944000001373e+00
1.691117488994093312e+18,9.744214372716199224e-03,3.654080389768574709e-03,6.967113276492082896e-01,4.598576639999999993e-01,-1.532858880000000090e-01,9.657010944000001373e+00
1.691117489004093440e+18,8.526187576126675188e-03,7.308160779537149418e-03,6.954933008526187344e-01,1.532858880000000090e-01,-9.197153279999999986e-01,9.197153280000000208e+00
1.691117489014093312e+18,1.339829476248477480e-02,2.436053593179049806e-03,6.735688185140072948e-01,-3.065717760000000180e-01,-4.598576639999999993e-01,9.657010944000001373e+00
1.691117489024093440e+18,1.461632155907429884e-02,2.436053593179049806e-03,6.455542021924481899e-01,-1.686144768000000127e+00,-4.598576639999999993e-01,9.810296832000000578e+00
1.691117489034093312e+18,2.192448233861144999e-02,-4.872107186358099612e-03,5.956151035322777565e-01,-4.598576639999999993e-01,-1.379572992000000164e+00,9.503725056000000393e+00
1.691117489044093440e+18,1.461632155907429884e-02,4.872107186358099612e-03,5.785627283800243159e-01,1.073001215999999980e+00,-7.664294400000000174e-01,9.657010944000001373e+00
1.691117489054093312e+18,1.339829476248477480e-02,-2.314250913520097402e-02,5.274056029232643272e-01,-1.532858880000000035e+00,-9.197153279999999986e-01,9.810296832000000578e+00
1.691117489064093440e+18,1.339829476248477480e-02,-2.070645554202192595e-02,4.762484774665042830e-01,-1.379572992000000164e+00,-7.664294400000000174e-01,9.350439168000001189e+00
1.691117489074093568e+18,1.339829476248477480e-02,2.192448233861144999e-02,4.287454323995127936e-01,-3.065717760000000180e-01,-1.073001215999999980e+00,9.657010944000001373e+00
1.691117489084093696e+18,8.526187576126675188e-03,6.090133982947624515e-03,3.617539585870889196e-01,1.532858880000000090e-01,-9.197153279999999986e-01,9.657010944000001373e+00
1.691117489094093568e+18,4.872107186358099612e-03,1.096224116930572499e-02,3.045066991473812656e-01,-4.598576639999999993e-01,-7.664294400000000174e-01,9.503725056000000393e+00
1.691117489104093440e+18,4.872107186358099612e-03,1.096224116930572499e-02,2.679658952496954960e-01,-1.532858880000000035e+00,-7.664294400000000174e-01,9.657010944000001373e+00
1.691117489114093568e+18,2.436053593179049806e-03,1.218026796589524903e-02,2.241169305724725891e-01,-9.197153279999999986e-01,-6.131435520000000361e-01,9.657010944000001373e+00
1.691117489124093440e+18,-4.872107186358099612e-03,1.583434835566382287e-02,1.997563946406820945e-01,-4.598576639999999993e-01,-4.598576639999999993e-01,9.503725056000000393e+00
1.691117489134093568e+18,-1.461632155907429884e-02,3.654080389768574709e-03,1.583434835566382426e-01,-1.686144768000000127e+00,-4.598576639999999993e-01,9.503725056000000393e+00
1.691117489144093440e+18,-6.090133982947624515e-03,1.218026796589524903e-02,1.315468940316686930e-01,-3.065717760000000180e-01,-4.598576639999999993e-01,9.503725056000000393e+00
1.691117489154093568e+18,-1.948842874543239845e-02,1.827040194884287441e-02,1.047503045066991434e-01,-1.073001215999999980e+00,-4.598576639999999993e-01,9.657010944000001373e+00
1.691117489164093440e+18,-1.218026796589524903e-02,8.526187576126675188e-03,7.308160779537149765e-02,-7.664294400000000174e-01,-4.598576639999999993e-01,9.503725056000000393e+00
1.691117489174093568e+18,-1.583434835566382287e-02,1.339829476248477480e-02,6.577344701583434650e-02,-1.532858880000000035e+00,-4.598576639999999993e-01,9.963582719999999782e+00
1.691117489184093440e+18,-7.308160779537149418e-03,1.339829476248477480e-02,4.993909866017052362e-02,-1.226287104000000072e+00,-1.532858880000000090e-01,9.503725056000000393e+00
1.691117489194093568e+18,-1.096224116930572499e-02,9.744214372716199224e-03,4.506699147381242054e-02,-4.598576639999999993e-01,-3.065717760000000180e-01,9.503725056000000393e+00
1.691117489204093440e+18,3.654080389768574709e-03,6.090133982947624515e-03,3.775883069427527633e-02,-7.664294400000000174e-01,-3.065717760000000180e-01,9.657010944000001373e+00
1.691117489214093568e+18,4.872107186358099612e-03,1.218026796589524903e-02,3.410475030450670075e-02,-6.131435520000000361e-01,-4.598576639999999993e-01,9.657010944000001373e+00
1.691117489224093440e+18,6.090133982947624515e-03,1.827040194884287441e-02,2.801461632155907364e-02,-1.532858880000000090e-01,-1.532858880000000090e-01,9.657010944000001373e+00
1.691117489234093312e+18,7.308160779537149418e-03,1.827040194884287441e-02,2.192448233861144999e-02,-1.532858880000000090e-01,-1.532858880000000090e-01,9.657010944000001373e+00
1.691117489244093440e+18,6.090133982947624515e-03,1.218026796589524903e-02,2.679658952496954960e-02,-1.532858880000000090e-01,-1.532858880000000090e-01,9.657010944000001373e+00
1.691117489254093312e+18,4.872107186358099612e-03,1.583434835566382287e-02,4.750304506699147555e-02,-1.073001215999999980e+00,-3.065717760000000180e-01,9.197153280000000208e+00
1.691117489264093440e+18,2.436053593179049806e-03,3.775883069427527633e-02,4.019488428745432440e-02,9.197153279999999986e-01,1.532858880000000090e-01,9.350439168000001189e+00
1.691117489274093312e+18,6.090133982947624515e-03,3.166869671132764574e-02,5.724725943970767478e-02,4.598576639999999993e-01,4.598576639999999993e-01,9.810296832000000578e+00
1.691117489284093440e+18,1.339829476248477480e-02,3.410475030450670075e-02,7.551766138855055266e-02,-6.131435520000000361e-01,0.000000000000000000e+00,1.088329804800000034e+01
1.691117489294093312e+18,-3.654080389768574709e-03,8.769792935444579995e-02,1.096224116930572534e-01,7.664294400000000174e-01,4.598576639999999993e-01,9.350439168000001189e+00
1.691117489304093440e+18,-3.654080389768574709e-03,3.532277710109622132e-02,1.412911084043848853e-01,-3.065717760000000180e-01,7.664294400000000174e-01,9.043867392000001004e+00
1.691117489314093312e+18,-8.526187576126675188e-03,2.923264311814859767e-02,1.753958587088915999e-01,1.839430655999999997e+00,7.664294400000000174e-01,9.350439168000001189e+00
1.691117489324093696e+18,-1.218026796589524903e-02,2.923264311814859767e-02,2.034104750304506770e-01,1.532858880000000090e-01,4.598576639999999993e-01,9.657010944000001373e+00
1.691117489334093568e+18,-7.308160779537149418e-03,4.141291108404385191e-02,2.314250913520097541e-01,7.664294400000000174e-01,1.532858880000000090e-01,9.197153280000000208e+00
1.691117489344093440e+18,-4.872107186358099612e-03,5.115712545676005113e-02,2.594397076735688312e-01,1.379572992000000164e+00,4.598576639999999993e-01,9.503725056000000393e+00
1.691117489354093568e+18,-1.705237515225335038e-02,3.532277710109622132e-02,2.911084043848964908e-01,1.226287104000000072e+00,1.532858880000000090e-01,9.657010944000001373e+00
1.691117489364093440e+18,-2.436053593179049806e-03,2.679658952496954960e-02,3.118148599269183752e-01,6.131435520000000361e-01,1.532858880000000090e-01,9.503725056000000393e+00
1.691117489374093568e+18,-1.096224116930572499e-02,2.436053593179049806e-02,3.288672350791717602e-01,1.226287104000000072e+00,0.000000000000000000e+00,9.197153280000000208e+00
1.691117489384093440e+18,-8.526187576126675188e-03,1.339829476248477480e-02,3.459196102314250898e-01,1.073001215999999980e+00,-1.532858880000000090e-01,9.350439168000001189e+00
1.691117489394093568e+18,-7.308160779537149418e-03,1.096224116930572499e-02,3.580998781973203648e-01,1.226287104000000072e+00,-1.532858880000000090e-01,9.503725056000000393e+00
1.691117489404093440e+18,7.308160779537149418e-03,9.744214372716199224e-03,3.714981729598051396e-01,9.197153279999999986e-01,-1.532858880000000090e-01,9.503725056000000393e+00
1.691117489414093568e+18,-2.436053593179049806e-03,1.218026796589524903e-03,3.812423873325213042e-01,1.686144768000000127e+00,-1.532858880000000090e-01,9.350439168000001189e+00
1.691117489424093440e+18,4.872107186358099612e-03,3.654080389768574709e-03,3.836784409257003592e-01,1.226287104000000072e+00,-1.532858880000000090e-01,9.657010944000001373e+00
1.691117489434093568e+18,7.308160779537149418e-03,4.872107186358099612e-03,3.970767356881851340e-01,1.686144768000000127e+00,-1.532858880000000090e-01,9.350439168000001189e+00
1.691117489444093440e+18,1.218026796589524903e-02,1.218026796589524903e-03,4.092570036540804090e-01,1.073001215999999980e+00,0.000000000000000000e+00,9.503725056000000393e+00
1.691117489454093568e+18,4.872107186358099612e-03,1.218026796589524903e-02,4.238733252131546836e-01,1.686144768000000127e+00,0.000000000000000000e+00,9.810296832000000578e+00
1.691117489464093440e+18,1.948842874543239845e-02,8.526187576126675188e-03,4.518879415347137884e-01,1.532858880000000035e+00,3.065717760000000180e-01,9.503725056000000393e+00
1.691117489474093312e+18,1.339829476248477480e-02,8.526187576126675188e-03,4.811205846528623375e-01,1.226287104000000072e+00,4.598576639999999993e-01,9.657010944000001373e+00
1.691117489484093440e+18,4.872107186358099612e-03,1.948842874543239845e-02,5.079171741778318871e-01,1.532858880000000035e+00,4.598576639999999993e-01,9.810296832000000578e+00
1.691117489494093312e+18,1.583434835566382287e-02,8.526187576126675188e-03,5.432399512789281015e-01,1.379572992000000164e+00,3.065717760000000180e-01,9.657010944000001373e+00
1.691117489504093440e+18,-6.090133982947624515e-03,2.070645554202192595e-02,5.773447015834348717e-01,1.532858880000000035e+00,6.131435520000000361e-01,9.657010944000001373e+00
1.691117489514093312e+18,6.090133982947624515e-03,1.218026796589524903e-02,6.187576126674786403e-01,1.226287104000000072e+00,6.131435520000000361e-01,9.657010944000001373e+00
1.691117489524093440e+18,1.096224116930572499e-02,1.096224116930572499e-02,6.285018270401948604e-01,1.379572992000000164e+00,6.131435520000000361e-01,9.657010944000001373e+00
1.691117489534093312e+18,-1.461632155907429884e-02,1.096224116930572499e-02,6.881851400730816248e-01,9.197153279999999986e-01,7.664294400000000174e-01,9.657010944000001373e+00
1.691117489544093440e+18,-4.872107186358099612e-03,1.583434835566382287e-02,7.149817295980511744e-01,1.073001215999999980e+00,4.598576639999999993e-01,9.503725056000000393e+00
1.691117489554093312e+18,-3.654080389768574709e-03,3.288672350791717325e-02,7.405602923264311688e-01,1.073001215999999980e+00,4.598576639999999993e-01,9.657010944000001373e+00
1.691117489564093440e+18,-8.526187576126675188e-03,2.801461632155907364e-02,7.697929354445798289e-01,1.992716544000000090e+00,4.598576639999999993e-01,9.810296832000000578e+00
1.691117489574093568e+18,-1.218026796589524903e-03,1.583434835566382287e-02,8.002436053593179333e-01,9.197153279999999986e-01,4.598576639999999993e-01,9.657010944000001373e+00
1.691117489584093696e+18,1.218026796589524903e-03,3.045066991473812518e-02,8.270401948842874829e-01,1.226287104000000072e+00,3.065717760000000180e-01,9.810296832000000578e+00
1.691117489594093568e+18,0.000000000000000000e+00,2.314250913520097402e-02,8.355663824604141476e-01,9.197153279999999986e-01,3.065717760000000180e-01,9.657010944000001373e+00
1.691117489604093440e+18,2.436053593179049806e-03,2.801461632155907364e-02,8.647990255785626967e-01,1.073001215999999980e+00,1.532858880000000090e-01,9.657010944000001373e+00
1.691117489614093568e+18,8.526187576126675188e-03,2.314250913520097402e-02,8.867235079171741363e-01,6.131435520000000361e-01,1.532858880000000090e-01,9.810296832000000578e+00
1.691117489624093440e+18,1.948842874543239845e-02,3.288672350791717325e-02,9.013398294762484664e-01,1.226287104000000072e+00,3.065717760000000180e-01,9.350439168000001189e+00
1.691117489634093568e+18,6.090133982947624515e-03,3.045066991473812518e-02,9.232643118148599060e-01,7.664294400000000174e-01,3.065717760000000180e-01,9.350439168000001189e+00
1.691117489644093440e+18,2.070645554202192595e-02,2.436053593179049806e-02,9.269183922046284607e-01,1.073001215999999980e+00,0.000000000000000000e+00,9.657010944000001373e+00
1.691117489654093568e+18,1.218026796589524903e-02,2.314250913520097402e-02,9.354445797807551255e-01,9.197153279999999986e-01,1.532858880000000090e-01,9.657010944000001373e+00
1.691117489664093440e+18,1.583434835566382287e-02,1.218026796589524903e-02,9.561510353227771208e-01,7.664294400000000174e-01,6.131435520000000361e-01,9.350439168000001189e+00
1.691117489674093568e+18,1.461632155907429884e-02,1.583434835566382287e-02,9.780755176613885604e-01,6.131435520000000361e-01,4.598576639999999993e-01,9.043867392000001004e+00
1.691117489684093440e+18,1.218026796589524903e-02,2.070645554202192595e-02,9.805115712545675599e-01,1.073001215999999980e+00,3.065717760000000180e-01,9.350439168000001189e+00
1.691117489694093568e+18,1.096224116930572499e-02,1.948842874543239845e-02,1.001218026796589555e+00,7.664294400000000174e-01,3.065717760000000180e-01,9.963582719999999782e+00
1.691117489704093440e+18,9.744214372716199224e-03,2.070645554202192595e-02,1.014616321559074219e+00,6.131435520000000361e-01,6.131435520000000361e-01,9.503725056000000393e+00
1.691117489714093568e+18,4.872107186358099612e-03,1.583434835566382287e-02,1.030450669914738215e+00,1.073001215999999980e+00,7.664294400000000174e-01,9.350439168000001189e+00
1.691117489724093440e+18,-7.308160779537149418e-03,1.827040194884287441e-02,1.052375152253349544e+00,9.197153279999999986e-01,6.131435520000000361e-01,9.350439168000001189e+00
1.691117489734093312e+18,1.461632155907429884e-02,2.192448233861144999e-02,1.063337393422655319e+00,9.197153279999999986e-01,3.065717760000000180e-01,9.657010944000001373e+00
1.691117489744093440e+18,7.308160779537149418e-03,1.705237515225335038e-02,1.066991473812423763e+00,3.065717760000000180e-01,1.532858880000000090e-01,9.810296832000000578e+00
1.691117489754093312e+18,0.000000000000000000e+00,3.288672350791717325e-02,1.074299634591961095e+00,1.839430655999999997e+00,6.131435520000000361e-01,9.503725056000000393e+00
1.691117489764093440e+18,-8.526187576126675188e-03,2.557856272838002556e-02,1.085261875761266648e+00,1.379572992000000164e+00,3.065717760000000180e-01,9.657010944000001373e+00
1.691117489774093312e+18,0.000000000000000000e+00,1.096224116930572499e-02,1.088915956151035314e+00,1.226287104000000072e+00,4.598576639999999993e-01,9.963582719999999782e+00
1.691117489784093440e+18,-1.218026796589524903e-03,2.314250913520097402e-02,1.104750304506699088e+00,6.131435520000000361e-01,3.065717760000000180e-01,9.657010944000001373e+00
1.691117489794093312e+18,-6.090133982947624515e-03,2.557856272838002556e-02,1.093788063337393313e+00,1.073001215999999980e+00,4.598576639999999993e-01,9.503725056000000393e+00
1.691117489804093440e+18,-8.526187576126675188e-03,1.948842874543239845e-02,1.112058465286236197e+00,7.664294400000000174e-01,6.131435520000000361e-01,9.350439168000001189e+00
1.691117489814093312e+18,-2.436053593179049806e-03,2.070645554202192595e-02,1.102314250913520199e+00,6.131435520000000361e-01,4.598576639999999993e-01,9.197153280000000208e+00
1.691117489824093696e+18,3.654080389768574709e-03,3.775883069427527633e-02,1.104750304506699088e+00,6.131435520000000361e-01,4.598576639999999993e-01,9.810296832000000578e+00
1.691117489834093568e+18,3.654080389768574709e-03,2.923264311814859767e-02,1.109622411693057309e+00,7.664294400000000174e-01,3.065717760000000180e-01,9.350439168000001189e+00
1.691117489844093440e+18,4.872107186358099612e-03,3.532277710109622132e-02,1.114494518879415308e+00,6.131435520000000361e-01,3.065717760000000180e-01,9.197153280000000208e+00
1.691117489854093568e+18,1.218026796589524903e-02,2.801461632155907364e-02,1.102314250913520199e+00,4.598576639999999993e-01,1.532858880000000090e-01,9.503725056000000393e+00
1.691117489864093440e+18,2.070645554202192595e-02,2.923264311814859767e-02,1.102314250913520199e+00,3.065717760000000180e-01,1.532858880000000090e-01,9.503725056000000393e+00
1.691117489874093568e+18,9.744214372716199224e-03,1.339829476248477480e-02,1.098660170523751534e+00,0.000000000000000000e+00,0.000000000000000000e+00,9.657010944000001373e+00
1.691117489884093440e+18,7.308160779537149418e-03,-1.218026796589524903e-03,1.077953714981729538e+00,4.598576639999999993e-01,0.000000000000000000e+00,9.503725056000000393e+00
1.691117489894093568e+18,2.679658952496954960e-02,1.218026796589524903e-03,1.054811205846528654e+00,1.532858880000000090e-01,1.532858880000000090e-01,9.197153280000000208e+00
1.691117489904093440e+18,3.045066991473812518e-02,7.308160779537149418e-03,1.042630937880633324e+00,0.000000000000000000e+00,-3.065717760000000180e-01,9.350439168000001189e+00
1.691117489914093568e+18,3.166869671132764574e-02,7.308160779537149418e-03,1.009744214372716220e+00,-4.598576639999999993e-01,-6.131435520000000361e-01,9.657010944000001373e+00
1.691117489924093440e+18,2.679658952496954960e-02,-9.744214372716199224e-03,9.792935444579781157e-01,1.532858880000000090e-01,-1.532858880000000090e-01,9.963582719999999782e+00
1.691117489934093568e+18,1.339829476248477480e-02,-1.948842874543239845e-02,9.439707673568819013e-01,0.000000000000000000e+00,-1.532858880000000090e-01,9.963582719999999782e+00
1.691117489944093440e+18,1.583434835566382287e-02,-4.750304506699147555e-02,9.062119366626065764e-01,-6.131435520000000361e-01,-6.131435520000000361e-01,8.737295616000000820e+00
1.691117489954093568e+18,1.948842874543239845e-02,-1.948842874543239845e-02,8.562728380024360320e-01,1.226287104000000072e+00,-4.598576639999999993e-01,9.810296832000000578e+00
1.691117489964093440e+18,8.526187576126675188e-03,-3.654080389768574709e-03,8.258221680876979276e-01,-6.131435520000000361e-01,-6.131435520000000361e-01,9.963582719999999782e+00
1.691117489974093312e+18,4.872107186358099612e-03,-4.872107186358099612e-03,7.746650426309378279e-01,-9.197153279999999986e-01,-9.197153279999999986e-01,9.810296832000000578e+00
1.691117489984093440e+18,-3.654080389768574709e-03,-4.872107186358099612e-03,7.186358099878197292e-01,3.065717760000000180e-01,-6.131435520000000361e-01,9.350439168000001189e+00
1.691117489994093312e+18,1.218026796589524903e-03,-1.827040194884287441e-02,6.589524969549329647e-01,1.532858880000000090e-01,-7.664294400000000174e-01,9.503725056000000393e+00
1.691117490004093440e+18,1.218026796589524903e-03,-1.339829476248477480e-02,5.943970767356882012e-01,1.532858880000000090e-01,-6.131435520000000361e-01,9.963582719999999782e+00
1.691117490014093312e+18,7.308160779537149418e-03,7.308160779537149418e-03,5.395858708891595468e-01,3.065717760000000180e-01,-7.664294400000000174e-01,9.810296832000000578e+00
1.691117490024093440e+18,1.218026796589524903e-02,1.583434835566382287e-02,4.872107186358100028e-01,0.000000000000000000e+00,-9.197153279999999986e-01,9.350439168000001189e+00
1.691117490034093312e+18,-7.308160779537149418e-03,2.923264311814859767e-02,4.226552984165651838e-01,-1.532858880000000090e-01,-9.197153279999999986e-01,9.963582719999999782e+00
1.691117490044093440e+18,-1.218026796589524903e-03,8.526187576126675188e-03,3.568818514007308096e-01,-1.532858880000000090e-01,-1.073001215999999980e+00,9.657010944000001373e+00
1.691117490054093312e+18,0.000000000000000000e+00,2.070645554202192595e-02,2.898903775883069356e-01,1.532858880000000090e-01,-7.664294400000000174e-01,9.503725056000000393e+00
1.691117490064093440e+18,0.000000000000000000e+00,2.679658952496954960e-02,2.436053593179050014e-01,-1.532858880000000090e-01,-6.131435520000000361e-01,9.503725056000000393e+00
1.691117490074093568e+18,-4.872107186358099612e-03,3.166869671132764574e-02,2.009744214372716220e-01,0.000000000000000000e+00,-6.131435520000000361e-01,9.350439168000001189e+00
1.691117490084093696e+18,-1.218026796589524903e-02,2.557856272838002556e-02,1.461632155907429953e-01,-3.065717760000000180e-01,-1.073001215999999980e+00,9.503725056000000393e+00
1.691117490094093568e+18,1.096224116930572499e-02,8.526187576126675188e-03,9.866017052375151974e-02,-3.065717760000000180e-01,-7.664294400000000174e-01,9.197153280000000208e+00
1.691117490104093440e+18,-2.436053593179049806e-03,-4.872107186358099612e-03,6.090133982947625035e-02,-3.065717760000000180e-01,-7.664294400000000174e-01,9.350439168000001189e+00
1.691117490114093568e+18,2.436053593179049806e-03,-1.339829476248477480e-02,1.827040194884287441e-02,-6.131435520000000361e-01,-6.131435520000000361e-01,9.350439168000001189e+00
1.691117490124093440e+18,7.308160779537149418e-03,0.000000000000000000e+00,-1.827040194884287441e-02,-7.664294400000000174e-01,-9.197153279999999986e-01,1.011686860800000076e+01
1.691117490134093568e+18,8.526187576126675188e-03,9.744214372716199224e-03,-5.602923264311814727e-02,-4.598576639999999993e-01,-6.131435520000000361e-01,9.503725056000000393e+00
1.691117490144093440e+18,2.436053593179049806e-03,-1.218026796589524903e-03,-1.132764920828258220e-01,-9.197153279999999986e-01,-9.197153279999999986e-01,9.043867392000001004e+00
1.691117490154093568e+18,8.526187576126675188e-03,-3.532277710109622132e-02,-1.412911084043848853e-01,-6.131435520000000361e-01,-6.131435520000000361e-01,9.350439168000001189e+00
1.691117490164093440e+18,6.090133982947624515e-03,-3.166869671132764574e-02,-1.619975639464068251e-01,-3.065717760000000180e-01,-4.598576639999999993e-01,9.657010944000001373e+00
1.691117490174093568e+18,1.583434835566382287e-02,-3.410475030450670075e-02,-1.741778319123020724e-01,-6.131435520000000361e-01,-1.532858880000000090e-01,9.810296832000000578e+00
1.691117490184093440e+18,1.948842874543239845e-02,-1.339829476248477480e-02,-1.778319123020706549e-01,-1.532858880000000090e-01,-3.065717760000000180e-01,9.350439168000001189e+00
1.691117490194093568e+18,1.339829476248477480e-02,-1.096224116930572499e-02,-1.924482338611449572e-01,0.000000000000000000e+00,-4.598576639999999993e-01,9.657010944000001373e+00
1.691117490204093440e+18,2.192448233861144999e-02,-2.192448233861144999e-02,-1.912302070645554297e-01,-9.197153279999999986e-01,-3.065717760000000180e-01,9.963582719999999782e+00
1.691117490214093568e+18,2.192448233861144999e-02,-1.827040194884287441e-02,-1.912302070645554297e-01,0.000000000000000000e+00,-1.532858880000000090e-01,9.810296832000000578e+00
1.691117490224093440e+18,2.192448233861144999e-02,-1.948842874543239845e-02,-1.839220462850182647e-01,-3.065717760000000180e-01,-1.532858880000000090e-01,9.503725056000000393e+00
1.691117490234093312e+18,1.583434835566382287e-02,-1.461632155907429884e-02,-1.753958587088915999e-01,-4.598576639999999993e-01,1.532858880000000090e-01,9.503725056000000393e+00
1.691117490244093440e+18,6.090133982947624515e-03,0.000000000000000000e+00,-1.510353227771011053e-01,-3.065717760000000180e-01,3.065717760000000180e-01,9.657010944000001373e+00
1.691117490254093312e+18,9.744214372716199224e-03,2.070645554202192595e-02,-1.218026796589525007e-01,-6.131435520000000361e-01,1.532858880000000090e-01,9.657010944000001373e+00
1.691117490264093440e+18,6.090133982947624515e-03,1.218026796589524903e-02,-9.622411693057247861e-02,-3.065717760000000180e-01,1.532858880000000090e-01,9.503725056000000393e+00
1.691117490274093312e+18,0.000000000000000000e+00,2.436053593179049806e-03,-8.160779537149817631e-02,-7.664294400000000174e-01,0.000000000000000000e+00,9.657010944000001373e+00
1.691117490284093440e+18,-1.096224116930572499e-02,-6.090133982947624515e-03,-7.064555420219244264e-02,-1.226287104000000072e+00,1.532858880000000090e-01,9.810296832000000578e+00
1.691117490294093312e+18,-6.090133982947624515e-03,1.705237515225335038e-02,-2.557856272838002556e-02,-1.073001215999999980e+00,1.532858880000000090e-01,9.503725056000000393e+00
1.691117490304093440e+18,-1.096224116930572499e-02,2.923264311814859767e-02,-2.679658952496954960e-02,-9.197153279999999986e-01,0.000000000000000000e+00,9.657010944000001373e+00
1.691117490314093312e+18,-3.654080389768574709e-03,4.019488428745432440e-02,-1.218026796589524903e-03,-1.379572992000000164e+00,3.065717760000000180e-01,9.503725056000000393e+00
1.691117490324093696e+18,-7.308160779537149418e-03,3.410475030450670075e-02,1.583434835566382287e-02,-3.065717760000000180e-01,0.000000000000000000e+00,9.503725056000000393e+00
1.691117490334093568e+18,3.654080389768574709e-03,2.192448233861144999e-02,2.192448233861144999e-02,-1.532858880000000090e-01,-1.532858880000000090e-01,9.350439168000001189e+00
1.691117490344093440e+18,2.436053593179049806e-03,3.045066991473812518e-02,2.801461632155907364e-02,-3.065717760000000180e-01,-1.532858880000000090e-01,9.657010944000001373e+00
1.691117490354093568e+18,-8.526187576126675188e-03,3.166869671132764574e-02,3.410475030450670075e-02,1.532858880000000090e-01,0.000000000000000000e+00,9.350439168000001189e+00
1.691117490364093440e+18,-1.218026796589524903e-03,4.506699147381242054e-02,5.237515225334957170e-02,3.065717760000000180e-01,0.000000000000000000e+00,9.657010944000001373e+00
1.691117490374093568e+18,0.000000000000000000e+00,4.993909866017052362e-02,4.750304506699147555e-02,4.598576639999999993e-01,-3.065717760000000180e-01,9.963582719999999782e+00
1.691117490384093440e+18,-1.096224116930572499e-02,8.647990255785627245e-02,6.090133982947625035e-02,7.664294400000000174e-01,-1.532858880000000090e-01,9.350439168000001189e+00
1.691117490394093568e+18,-2.436053593179049806e-03,2.801461632155907364e-02,7.429963459196102515e-02,2.759145984000000329e+00,1.532858880000000090e-01,1.011686860800000076e+01
1.691117490404093440e+18,0.000000000000000000e+00,7.795371498172959379e-02,9.257003654080389610e-02,2.146002431999999960e+00,-1.532858880000000090e-01,9.503725056000000393e+00
1.691117490414093568e+18,3.654080389768574709e-03,7.064555420219244264e-02,1.023142509135201023e-01,1.073001215999999980e+00,-3.065717760000000180e-01,1.027015449599999997e+01
1.691117490424093440e+18,-4.872107186358099612e-03,8.647990255785627245e-02,1.230207064555420282e-01,-3.065717760000000180e-01,1.532858880000000090e-01,9.350439168000001189e+00
1.691117490434093568e+18,-1.583434835566382287e-02,4.384896467722289998e-02,1.303288672350791655e-01,1.686144768000000127e+00,-4.598576639999999993e-01,9.350439168000001189e+00
1.691117490444093440e+18,3.654080389768574709e-03,4.506699147381242054e-02,1.132764920828258220e-01,1.226287104000000072e+00,0.000000000000000000e+00,9.350439168000001189e+00
1.691117490454093568e+18,-9.744214372716199224e-03,2.436053593179049806e-02,1.230207064555420282e-01,6.131435520000000361e-01,-1.532858880000000090e-01,9.503725056000000393e+00
1.691117490464093440e+18,-2.436053593179049806e-03,2.192448233861144999e-02,1.230207064555420282e-01,1.532858880000000090e-01,-3.065717760000000180e-01,9.350439168000001189e+00
1.691117490474093312e+18,-7.308160779537149418e-03,2.070645554202192595e-02,1.266747868453105830e-01,7.664294400000000174e-01,-1.532858880000000090e-01,9.657010944000001373e+00
1.691117490484093440e+18,-3.654080389768574709e-03,1.583434835566382287e-02,1.388550548112058580e-01,4.598576639999999993e-01,0.000000000000000000e+00,9.503725056000000393e+00
1.691117490494093312e+18,-4.872107186358099612e-03,1.339829476248477480e-02,1.230207064555420282e-01,7.664294400000000174e-01,-4.598576639999999993e-01,8.890581504000000024e+00
1.691117490504093440e+18,1.218026796589524903e-02,-2.557856272838002556e-02,1.047503045066991434e-01,4.598576639999999993e-01,-6.131435520000000361e-01,9.043867392000001004e+00
1.691117490514093312e+18,2.070645554202192595e-02,-1.339829476248477480e-02,1.035322777101096159e-01,1.226287104000000072e+00,-6.131435520000000361e-01,9.503725056000000393e+00
1.691117490524093440e+18,2.314250913520097402e-02,-1.948842874543239845e-02,8.282582216808770381e-02,1.379572992000000164e+00,-4.598576639999999993e-01,9.503725056000000393e+00
1.691117490534093312e+18,2.679658952496954960e-02,-1.339829476248477480e-02,9.013398294762484109e-02,1.073001215999999980e+00,-3.065717760000000180e-01,9.657010944000001373e+00
1.691117490544093440e+18,2.436053593179049806e-02,-1.461632155907429884e-02,8.038976857490864880e-02,1.379572992000000164e+00,-1.532858880000000090e-01,9.657010944000001373e+00
1.691117490554093312e+18,3.654080389768574882e-02,-8.526187576126675188e-03,8.526187576126674494e-02,1.379572992000000164e+00,-7.664294400000000174e-01,9.503725056000000393e+00
1.691117490564093440e+18,3.532277710109622132e-02,-1.948842874543239845e-02,7.917174177831912130e-02,1.532858880000000035e+00,-3.065717760000000180e-01,9.657010944000001373e+00
1.691117490574093568e+18,3.775883069427527633e-02,-1.827040194884287441e-02,8.038976857490864880e-02,1.073001215999999980e+00,3.065717760000000180e-01,1.011686860800000076e+01
1.691117490584093696e+18,2.557856272838002556e-02,1.096224116930572499e-02,8.526187576126674494e-02,1.532858880000000035e+00,1.532858880000000090e-01,9.657010944000001373e+00
1.691117490594093568e+18,1.948842874543239845e-02,1.827040194884287441e-02,9.987819732034104725e-02,1.379572992000000164e+00,0.000000000000000000e+00,9.657010944000001373e+00
1.691117490604093440e+18,6.090133982947624515e-03,2.192448233861144999e-02,9.257003654080389610e-02,1.532858880000000035e+00,0.000000000000000000e+00,9.503725056000000393e+00
1.691117490614093568e+18,1.096224116930572499e-02,1.705237515225335038e-02,1.144945188794153496e-01,1.379572992000000164e+00,3.065717760000000180e-01,9.657010944000001373e+00
1.691117490624093440e+18,-8.526187576126675188e-03,1.827040194884287441e-02,1.291108404384896380e-01,1.073001215999999980e+00,1.532858880000000090e-01,9.657010944000001373e+00
1.691117490634093568e+18,-1.096224116930572499e-02,1.948842874543239845e-02,1.266747868453105830e-01,7.664294400000000174e-01,1.532858880000000090e-01,9.810296832000000578e+00
1.691117490644093440e+18,-8.526187576126675188e-03,2.679658952496954960e-02,1.242387332521315418e-01,7.664294400000000174e-01,0.000000000000000000e+00,9.657010944000001373e+00
1.691117490654093568e+18,-1.583434835566382287e-02,2.070645554202192595e-02,1.291108404384896380e-01,4.598576639999999993e-01,0.000000000000000000e+00,9.503725056000000393e+00
1.691117490664093440e+18,4.872107186358099612e-03,2.557856272838002556e-02,1.266747868453105830e-01,4.598576639999999993e-01,-1.532858880000000090e-01,9.350439168000001189e+00
1.691117490674093568e+18,-2.436053593179049806e-03,3.654080389768574709e-03,1.181485992691839182e-01,0.000000000000000000e+00,-3.065717760000000180e-01,9.197153280000000208e+00
1.691117490684093440e+18,1.705237515225335038e-02,-2.436053593179049806e-03,9.500609013398295111e-02,6.131435520000000361e-01,-6.131435520000000361e-01,9.197153280000000208e+00
1.691117490694093568e+18,1.827040194884287441e-02,0.000000000000000000e+00,9.987819732034104725e-02,6.131435520000000361e-01,-3.065717760000000180e-01,9.197153280000000208e+00
1.691117490704093440e+18,1.705237515225335038e-02,-1.218026796589524903e-02,9.257003654080389610e-02,3.065717760000000180e-01,-6.131435520000000361e-01,9.810296832000000578e+00
1.691117490714093568e+18,1.339829476248477480e-02,3.654080389768574709e-03,6.820950060901340151e-02,-9.197153279999999986e-01,-7.664294400000000174e-01,9.350439168000001189e+00
1.691117490724093440e+18,1.705237515225335038e-02,1.218026796589524903e-03,4.628501827040194805e-02,1.532858880000000035e+00,-7.664294400000000174e-01,8.890581504000000024e+00
1.691117490734093312e+18,2.923264311814859767e-02,-1.218026796589524903e-02,3.166869671132764574e-02,-3.065717760000000180e-01,-6.131435520000000361e-01,8.737295616000000820e+00
