timestamp, angular_velocity_x, angular_velocity_y, angular_velocity_z, linear_acceleration_x, linear_acceleration_y, linear_acceleration_z
1520531124153717567, -0.3510046316724436, 0.03382214584400633, -0.0290284558818637, -0.44786865234375, 0.520916748046875, 11.093730468750001
1520531124158732567, -0.35127094778145157, 0.005060006071150553, -0.004793689962142629, -0.35685791015625, 0.592767333984375, 11.011102294921876
1520531124163746567, -0.3422162000751821, -0.02716424311880823, 0.02556634646476069, -0.26105712890625, 0.6083349609375001, 10.90931396484375
1520531124168762567, -0.32996565906081765, -0.062317969507854176, 0.05938849230876701, -0.159268798828125, 0.6143225097656251, 10.879376220703126
1520531124173778567, -0.3131877441933184, -0.09667274756987636, 0.09747169589690012, -0.23590942382812502, 0.5891748046875, 10.812315673828126
1520531124178794567, -0.2894856104916132, -0.1318264739589223, 0.13475595115800945, -0.277822265625, 0.523311767578125, 10.788365478515626
1520531124183810567, -0.2679140056619714, -0.16511598758491278, 0.16591493591193654, -0.43110351562500004, 0.37122802734375004, 10.72250244140625
1520531124188826567, -0.24314660752423448, -0.19041601794066554, 0.19228023070372102, -0.5700146484375, 0.25387207031250003, 10.678194580078125
1520531124193841567, -0.2154497321874104, -0.2090581455712202, 0.2122539388793153, -0.699345703125, 0.149688720703125, 10.6099365234375
1520531124198857567, -0.18828548906860215, -0.21837920938649755, 0.22397184767566394, -0.8813671875000001, -0.045505371093750004, 10.554851074218751
1520531124203873567, -0.16271914260384146, -0.21678131273245, 0.2266350087657432, -1.04183349609375, -0.20118164062500002, 10.54527099609375
1520531124208888567, -0.13715279613908077, -0.20879182946221228, 0.22077605436756886, -1.17116455078125, -0.3209326171875, 10.544073486328125
1520531124213903567, -0.11638013963646272, -0.1989381334289191, 0.20532972004510927, -1.282532958984375, -0.4358935546875, 10.553653564453125
1520531124218919567, -0.09693906367888427, -0.18722022463257046, 0.18162758634340406, -1.287322998046875, -0.52929931640625, 10.60275146484375
1520531124223934567, -0.08069378102940092, -0.18162758634340406, 0.15606123987864337, -1.150806884765625, -0.52929931640625, 10.649454345703125
1520531124228951567, -0.06391586616190172, -0.17976337358034858, 0.13262542228594607, -1.081351318359375, -0.4646337890625, 10.685379638671876
1520531124233966567, -0.04633900296737875, -0.17630126416324557, 0.11345066243737556, -0.980760498046875, -0.4071533203125, 10.577603759765626
1520531124238982567, -0.02689792700980031, -0.17390441918217428, 0.09560748313384466, -0.91729248046875, -0.355660400390625, 10.4614453125
1520531124243997567, -0.007456851052221868, -0.16937704532903955, 0.08069378102940092, -0.9053173828125001, -0.32572265625, 10.417137451171875
1520531124249013567, 0.01597896654047543, -0.15952334929574638, 0.06657902725198096, -0.93166259765625, -0.28261230468750004, 10.356064453125
1520531124254029567, 0.03808320358813311, -0.1486043888264215, 0.053529537910592694, -0.87897216796875, -0.28740234375, 10.306966552734375
1520531124259044567, 0.05779059565471947, -0.13928332501114415, 0.03941478413317273, -0.8957373046875, -0.32572265625, 10.306966552734375
1520531124264059567, 0.07669903939428206, -0.12570120345174005, 0.02769687533682408, -0.9819580078125001, -0.379610595703125, 10.332114257812501
1520531124269075567, 0.0937432703707892, -0.108390656366225, 0.017843179303530896, -1.02267333984375, -0.41433837890625, 10.339299316406251
1520531124274091567, 0.10892328858424084, -0.0926780059347575, 0.009321063815277334, -1.124461669921875, -0.469423828125, 10.340496826171876
1520531124279106567, 0.11930961683554989, -0.0782969360483296, 0.00026631610900792384, -1.2370275878906252, -0.5269042968750001, 10.34887939453125
1520531124284122567, 0.12916331286884306, -0.060720072853806636, -0.008788431597261486, -1.36755615234375, -0.587977294921875, 10.368039550781251
1520531124289138567, 0.13582121559404114, -0.04154531300523612, -0.02077265650261806, -1.5543676757812501, -0.686173095703125, 10.391989746093751
1520531124294153567, 0.13502226726701738, -0.02077265650261806, -0.037017939152101415, -1.701661376953125, -0.7939489746093751, 10.4183349609375
1520531124299169567, 0.13555489948503324, 0.0005326322180158477, -0.05779059565471947, -1.804647216796875, -0.87418212890625, 10.46863037109375
1520531124304185567, 0.12969594508685892, 0.01384843766841204, -0.0759000910672583, -1.807042236328125, -0.8562194824218751, 10.63628173828125
1520531124309200567, 0.12303804236166081, 0.018375811521546746, -0.08948221262666241, -1.7938696289062501, -0.8047265625000001, 10.705737304687501
1520531124314215567, 0.11691277185447857, 0.017044230976507126, -0.0972053797878922, -1.7411791992187502, -0.741258544921875, 10.671009521484375
1520531124319231567, 0.11318434632836763, 0.016777914867499202, -0.10759170803920123, -1.766326904296875, -0.710123291015625, 10.656639404296875
1520531124324247567, 0.10705907582118539, 0.01997370817559429, -0.11691277185447857, -1.766326904296875, -0.7137158203125, 10.594368896484376
1520531124329262567, 0.10120012142301106, 0.020506340393610135, -0.12463593901570835, -1.7459692382812502, -0.74006103515625, 10.585986328125001
1520531124334278567, 0.0950748509158288, 0.023702133701705222, -0.1352885833760253, -1.7244140625000002, -0.762813720703125, 10.527308349609376
1520531124339294567, 0.08655273542757524, 0.02849582366384785, -0.15020228548046904, -1.713636474609375, -0.833466796875, 10.50216064453125
1520531124344309567, 0.0759000910672583, 0.02636529479178446, -0.16458335536689694, -1.7292041015625002, -0.9196875, 10.508148193359375
1520531124349324567, 0.06338323394388587, 0.020240024284602212, -0.1832254829974516, -1.689686279296875, -1.014290771484375, 10.591973876953126
1520531124354341567, 0.047404267403410444, 0.009321063815277334, -0.2066613005901489, -1.619033203125, -1.0753637695312501, 10.712922363281251
1520531124359355567, 0.02636529479178446, -0.003195793308095086, -0.23089606650986996, -1.555565185546875, -1.102906494140625, 10.781180419921876
1520531124364370567, 0.005060006071150553, -0.021305288720633905, -0.25406556799355934, -1.4465917968750002, -1.0705737304687502, 10.809920654296876
1520531124369390567, -0.01731054708551505, -0.0402137324601965, -0.2783003339132804, -1.3699511718750002, -1.0106982421875002, 10.888956298828125
1520531124374403567, -0.04074636467821235, -0.06045375674479871, -0.29933930652490637, -1.227447509765625, -0.93884765625, 10.8494384765625
1520531124379418567, -0.060720072853806636, -0.07536745884924245, -0.31372037641133427, -1.1088940429687502, -0.8514294433593751, 10.841055908203126
1520531124384434567, -0.080427464920393, -0.08522115488253562, -0.32676986575272254, -1.014290771484375, -0.7532336425781251, 10.809920654296876
1520531124389450567, -0.09880327644193974, -0.0982706442239239, -0.3347593490229603, -0.97477294921875, -0.6634204101562501, 10.771600341796876
1520531124394464567, -0.11531487520043102, -0.11025486912928047, -0.34354778062022173, -0.9496252441406251, -0.5891748046875, 10.718909912109375
1520531124399481567, -0.12570120345174005, -0.1251685712337242, -0.34434672894724555, -0.8921447753906251, -0.5185217285156251, 10.70334228515625
1520531124404497567, -0.13475595115800945, -0.14141385388320757, -0.34274883229319797, -0.8861572265625001, -0.42152343750000004, 10.65544189453125
1520531124409512567, -0.13875069279312832, -0.1555286076606275, -0.3328951362599048, -0.8861572265625001, -0.307760009765625, 10.499765625
1520531124414527567, -0.13582121559404114, -0.16378440703987315, -0.31798143415546104, -0.9627978515625001, -0.21674926757812502, 10.35845947265625
1520531124419544567, -0.12570120345174005, -0.16591493591193654, -0.3004045709609381, -1.005908203125, -0.15687377929687502, 10.2650537109375
1520531124424557567, -0.11345066243737556, -0.16671388423896033, -0.2769687533682408, -1.047821044921875, -0.132923583984375, 10.193203125
1520531124429574567, -0.09587379924285258, -0.16591493591193654, -0.25406556799355934, -1.038240966796875, -0.14130615234375002, 10.144105224609376
1520531124434590567, -0.07430219441321075, -0.16618125202094447, -0.23276027927292545, -1.026265869140625, -0.10777587890625001, 10.168055419921876
1520531124439606567, -0.04873584794845006, -0.16831178089300786, -0.20799288113518852, -0.9675878906250001, -0.056282958984375006, 10.199190673828125
1520531124444621567, -0.023968449810713145, -0.17523599972721388, -0.1821602185614199, -0.833466796875, 0.003592529296875, 10.187215576171875
1520531124449638567, 0.00346210941710301, -0.18722022463257046, -0.1552622915516196, -0.726888427734375, 0.094603271484375, 10.25068359375
1520531124454652567, 0.031158984753927088, -0.2055960361541172, -0.12650015177876384, -0.621507568359375, 0.173638916015625, 10.298583984375
1520531124459668567, 0.05912217619975909, -0.22983080207383827, -0.09640643146086843, -0.48379394531250003, 0.298179931640625, 10.323731689453126
1520531124464683567, 0.08921589651765449, -0.25406556799355934, -0.06737797557900473, -0.40236328125000004, 0.39278320312500004, 10.393187255859376
1520531124469699567, 0.1206411973805895, -0.276169805041217, -0.03994741635118858, -0.35685791015625, 0.47900390625, 10.417137451171875
1520531124474714567, 0.15259913046154036, -0.29214877158169245, -0.015180018213451659, -0.326920166015625, 0.5053491210937501, 10.356064453125
1520531124479730567, 0.1829591668884437, -0.2996056226339143, 0.00825579937924564, -0.28740234375, 0.561632080078125, 10.338101806640626
1520531124484746567, 0.21624868051443416, -0.2969424615438351, 0.02716424311880823, -0.27542724609375, 0.5700146484375, 10.323731689453126
1520531124489762567, 0.244744504178282, -0.2878877138375657, 0.04500742242233913, -0.29219238281250004, 0.5748046875, 10.28900390625
1520531124494776567, 0.27004453453403476, -0.2780340178042725, 0.06418218227090965, -0.279019775390625, 0.530496826171875, 10.275831298828125
1520531124499792567, 0.29241508769070035, -0.2679140056619714, 0.080427464920393, -0.296982421875, 0.4981640625, 10.314151611328125
1520531124504808567, 0.31425300862935013, -0.2591255740647099, 0.09747169589690012, -0.314945068359375, 0.46104125976562504, 10.318941650390625
1520531124509824567, 0.33049829127883346, -0.24794029748637708, 0.11078750134729631, -0.31853759765625, 0.386795654296875, 10.28900390625
1520531124514839567, 0.3456783094922851, -0.22983080207383827, 0.12223909403463704, -0.34248779296875004, 0.354462890625, 10.248288574218751
1520531124519855567, 0.3547330571985546, -0.20932446168022814, 0.1272991001057876, -0.379610595703125, 0.295784912109375, 10.172845458984375
1520531124524870567, 0.36112464381474474, -0.18508969576050707, 0.13102752563189854, -0.4071533203125, 0.2682421875, 10.114167480468751
1520531124529886567, 0.3619235921417685, -0.15446334322459582, 0.13049489341388268, -0.43230102539062504, 0.30296997070312504, 10.145302734375
1520531124534901567, 0.3605920115967289, -0.11717908796348649, 0.12676646788777174, -0.446671142578125, 0.307760009765625, 10.1500927734375
1520531124539918567, 0.35366779276252286, -0.07882956826634546, 0.12543488734273212, -0.43828857421875, 0.3448828125, 10.175240478515626
1520531124544932567, 0.3408846195301425, -0.03941478413317273, 0.12543488734273212, -0.4167333984375, 0.379610595703125, 10.193203125
1520531124549949567, 0.3275688140797463, -0.003994741635118857, 0.12436962290670044, -0.4263134765625, 0.386795654296875, 10.263856201171876
1520531124554965567, 0.30679615757712825, 0.025033714246744842, 0.12570120345174005, -0.4071533203125, 0.384400634765625, 10.294991455078126
1520531124559980567, 0.28282770776641514, 0.049002164057457984, 0.12996226119586685, -0.43110351562500004, 0.360450439453125, 10.317744140625
1520531124564995567, 0.2561960968656227, 0.06870955612404435, 0.13688648003007287, -0.484991455078125, 0.32332763671875003, 10.317744140625
1520531124570011567, 0.22264026713062432, 0.08548747099154355, 0.14168016999221547, -0.5029541015625, 0.26584716796875, 10.347681884765626
1520531124575027567, 0.18961706961364178, 0.1038632825130903, 0.14674017606336603, -0.5484594726562501, 0.19639160156250002, 10.423125
1520531124580043567, 0.1520664982435245, 0.1195759329445578, 0.15259913046154036, -0.6167175292968751, 0.11017089843750001, 10.5237158203125
1520531124585058567, 0.11265171411035178, 0.1272991001057876, 0.15712650431467506, -0.662222900390625, 0.026345214843750003, 10.58838134765625
1520531124590074567, 0.06870955612404435, 0.13129384174090644, 0.15686018820566713, -0.718505859375, -0.07424560546875, 10.7632177734375
1520531124595088567, 0.0234358175926973, 0.12996226119586685, 0.1584580848597147, -0.833466796875, -0.13172607421875002, 10.89015380859375
1520531124600104567, -0.02689792700980031, 0.12383699068868459, 0.15579492376963544, -0.968785400390625, -0.13172607421875002, 11.013497314453126
1520531124605120567, -0.07669903939428206, 0.11451592687340725, 0.15366439489757205, -0.98914306640625, -0.162861328125, 11.126063232421876
1520531124610136567, -0.12703278399677967, 0.10759170803920123, 0.15046860158947697, -1.06578369140625, -0.197589111328125, 11.18953125
1520531124615150567, -0.17976337358034858, 0.10093380531400313, 0.14594122773634227, -1.1256591796875, -0.202379150390625, 11.191926269531251
1520531124620167567, -0.22770027320177488, 0.10013485698697937, 0.14141385388320757, -1.148411865234375, -0.17004638671875, 11.138038330078125
1520531124625183567, -0.27430559227816154, 0.10146643753201898, 0.13448963504900155, -1.178349609375, -0.13172607421875002, 11.093730468750001
1520531124630199567, -0.3206445952455403, 0.10226538585904275, 0.12676646788777174, -1.150806884765625, -0.15328125, 11.0602001953125
1520531124635213567, -0.360059379378713, 0.10359696640408238, 0.12037488127158158, -1.1448193359375, -0.092208251953125, 11.00032470703125
1520531124640229567, -0.39574573798577484, 0.10759170803920123, 0.11451592687340725, -1.082548828125, -0.077838134765625, 10.95721435546875
1520531124645244567, -0.4293015677207732, 0.1038632825130903, 0.11158644967432009, -1.016685791015625, -0.080233154296875, 10.917696533203125
1520531124650262567, -0.45646581083958143, 0.09853696033293181, 0.10972223691126462, -0.9352551269531251, -0.092208251953125, 10.921289062500001
1520531124655276567, -0.4817658411953342, 0.09081379317170203, 0.1073253919301933, -0.863404541015625, -0.082628173828125, 10.90452392578125
1520531124660292567, -0.5020058654799364, 0.07962851659336923, 0.10652644360316954, -0.814306640625, -0.05987548828125, 10.7823779296875
1520531124665307567, -0.5166532514753722, 0.06657902725198096, 0.10679275971217746, -0.73527099609375, -0.055085449218750006, 10.681787109375001
1520531124670324567, -0.5257079991816417, 0.05539375067364816, 0.108390656366225, -0.63468017578125, -0.06586303710937501, 10.607541503906251
1520531124675339567, -0.5291701085987447, 0.04767058351241837, 0.11318434632836763, -0.587977294921875, -0.06825805664062501, 10.500963134765625
1520531124680354567, -0.5275722119446972, 0.041278996896228194, 0.11824435239951818, -0.6083349609375001, -0.09819580078125001, 10.393187255859376
1520531124685370567, -0.5195827286744594, 0.03488741028003802, 0.1227717262526529, -0.650247802734375, -0.132923583984375, 10.308164062500001
1520531124690386567, -0.5067995554420791, 0.029561088099879545, 0.12916331286884306, -0.6274951171875001, -0.15567626953125, 10.218350830078126
1520531124695401567, -0.49428269831870664, 0.02716424311880823, 0.13315805450396193, -0.6550378417968751, -0.22273681640625, 10.187215576171875
1520531124700417567, -0.4785700478872391, 0.02769687533682408, 0.13821806057511246, -0.719703369140625, -0.28261230468750004, 10.16206787109375
1520531124705433567, -0.45726475916660525, 0.034354778062022175, 0.1408812216651917, -0.748443603515625, -0.298179931640625, 10.061477050781251
1520531124710448567, -0.4348942060099396, 0.044741106313331204, 0.14247911831923926, -0.7963439941406251, -0.3305126953125, 10.021959228515625
1520531124715462567, -0.40826259510914725, 0.05432848623761646, 0.14168016999221547, -0.8574169921875, -0.370030517578125, 9.94412109375
1520531124720480567, -0.38136466809934694, 0.06018744063579079, 0.13981595722916002, -0.85981201171875, -0.40954833984375, 9.9393310546875
1520531124725494567, -0.34993936723641195, 0.06418218227090965, 0.13582121559404114, -0.8777746582031251, -0.44786865234375, 9.95130615234375
1520531124730510567, -0.318247750264469, 0.07217166554114736, 0.1339570028309857, -0.9412426757812501, -0.5316943359375, 9.97525634765625
1520531124735525567, -0.28655613329252605, 0.08096009713840885, 0.12916331286884306, -1.110091552734375, -0.59635986328125, 9.959688720703125
1520531124740541567, -0.25060345857645633, 0.09134642538971788, 0.11451592687340725, -1.184337158203125, -0.671802978515625, 9.91777587890625
1520531124745556567, -0.21278657109733115, 0.10519486305812992, 0.09587379924285258, -1.299298095703125, -0.7855664062500001, 9.868677978515626
1520531124750574567, -0.1773665285992773, 0.1150485590914231, 0.07563377495825037, -1.36755615234375, -0.9160949707031251, 9.886640625
1520531124755589567, -0.13422331893999362, 0.11984224905356573, 0.050067428493489684, -1.414259033203125, -0.99393310546875, 9.92256591796875
1520531124760605567, -0.09001484484467825, 0.1195759329445578, 0.023702133701705222, -1.33881591796875, -1.0370434570312501, 9.942923583984376
1520531124765618567, -0.05033374460249761, 0.1139832946553914, 0.001331580545039619, -1.282532958984375, -1.033450927734375, 9.98483642578125
1520531124770634567, -0.004527373853134706, 0.10226538585904275, -0.01864212763055467, -1.265767822265625, -1.00351318359375, 9.94651611328125
1520531124775651567, 0.04101268078722027, 0.08761799986360694, -0.03568635860706179, -1.189127197265625, -0.95082275390625, 9.935738525390626
1520531124780666567, 0.08921589651765449, 0.07563377495825037, -0.05193164125654515, -1.1160791015625, -0.85023193359375, 9.895023193359375
1520531124785680567, 0.1352885833760253, 0.06471481448892549, -0.058855860090751166, -0.9819580078125001, -0.73048095703125, 9.874665527343751
1520531124790698567, 0.18136127023439613, 0.05432848623761646, -0.05566006678265608, -0.75922119140625, -0.5508544921875, 9.904603271484376
1520531124795712567, 0.2234392154576481, 0.04287689355027574, -0.0402137324601965, -0.621507568359375, -0.37362304687500003, 9.9393310546875
1520531124800729567, 0.26312031569982874, 0.02822950755483993, -0.015446334322459582, -0.585582275390625, -0.281414794921875, 9.9584912109375
1520531124805743567, 0.2961435132168113, 0.010652644360316953, 0.009054747706269411, -0.57240966796875, -0.1580712890625, 10.029144287109375
1520531124810760567, 0.32996565906081765, -0.004527373853134706, 0.03488741028003802, -0.6083349609375001, -0.132923583984375, 10.0351318359375
1520531124815774567, 0.3587277988336734, -0.01651159875849128, 0.061519021180830406, -0.640667724609375, -0.140108642578125, 10.062674560546876
1520531124820792567, 0.3842941452984341, -0.02290318537468145, 0.08522115488253562, -0.652642822265625, -0.16046630859375, 10.0830322265625
1520531124825806567, 0.409061543436171, -0.02849582366384785, 0.10439591473110614, -0.64905029296875, -0.18681152343750002, 10.086624755859376
1520531124830822567, 0.43063314826581284, -0.03249056529896671, 0.12010856516257365, -0.669407958984375, -0.19639160156250002, 9.96328125
1520531124835838567, 0.44874264367835165, -0.029561088099879545, 0.13342437061296986, -0.7041357421875001, -0.18561401367187502, 9.950108642578126
1520531124840854567, 0.46418897800081127, -0.02476739813773692, 0.14594122773634227, -0.6945556640625, -0.24069946289062502, 9.881850585937501
1520531124845868567, 0.4748416223611282, -0.017843179303530896, 0.1565938720966592, -0.700543212890625, -0.24668701171875002, 9.832752685546875
1520531124850884567, 0.48309742174037384, -0.00825579937924564, 0.164317039257889, -0.71611083984375, -0.269439697265625, 9.85550537109375
1520531124855900567, 0.49188585333763535, 0.0023968449810713144, 0.17017599365606334, -0.7532336425781251, -0.310155029296875, 9.93693603515625
1520531124860916567, 0.492951117773667, 0.01038632825130903, 0.17523599972721388, -0.7999365234375, -0.40116577148437504, 10.01357666015625
1520531124865930567, 0.4910869050106116, 0.01384843766841204, 0.17576863194522974, -0.8753796386718751, -0.434696044921875, 10.152487792968751
1520531124870947567, 0.4876247955935086, 0.017044230976507126, 0.1720402064191188, -0.942440185546875, -0.4454736328125, 10.290201416015625
1520531124875962567, 0.47883636399624707, 0.018375811521546746, 0.16618125202094447, -0.9915380859375, -0.49097900390625004, 10.480605468750001
1520531124880978567, 0.4657868746548588, 0.015446334322459582, 0.157392820423683, -1.050216064453125, -0.53887939453125, 10.613529052734375
1520531124885993567, 0.4495415920053754, 0.011451592687340724, 0.14381069886427889, -1.1136840820312501, -0.5412744140625, 10.738070068359375
1520531124891010567, 0.43063314826581284, 0.004527373853134706, 0.12889699675983513, -1.167572021484375, -0.51971923828125, 10.910511474609375
1520531124896024567, 0.4093278595451789, -0.004793689962142629, 0.11238539800134385, -1.1951147460937501, -0.5412744140625, 11.100915527343751
1520531124901039567, 0.38136466809934694, -0.019174759848570515, 0.09480853480682089, -1.22625, -0.5376818847656251, 11.26377685546875
1520531124906056567, 0.3528688444354991, -0.03542004249805387, 0.0782969360483296, -1.189127197265625, -0.530496826171875, 11.32125732421875
1520531124911071567, 0.32490565298966706, -0.047404267403410444, 0.06205165339884625, -1.159189453125, -0.5029541015625, 11.256591796875
1520531124916086567, 0.29427930045375583, -0.0569916473276957, 0.0468716351853946, -1.1639794921875, -0.43828857421875, 11.170371093750001
1520531124921103567, 0.26498452846288423, -0.06631271114297303, 0.034354778062022175, -1.114881591796875, -0.389190673828125, 11.11528564453125
1520531124926118567, 0.2380866014530839, -0.07004113666908397, 0.026098978682776535, -1.081351318359375, -0.3592529296875, 11.006312255859376
1520531124931135567, 0.2101234100072519, -0.07243798165015529, 0.018109495412538822, -1.093326416015625, -0.298179931640625, 10.873388671875
1520531124936150567, 0.18615496019653877, -0.07030745277809189, 0.009321063815277334, -1.06099365234375, -0.25387207031250003, 10.793155517578125
1520531124941165567, 0.16032229762277014, -0.06684534336098888, 0.005858954398174325, -1.0406359863281252, -0.288599853515625, 10.7296875
1520531124946180567, 0.13448963504900155, -0.05832322787273532, 0.003195793308095086, -1.0190808105468752, -0.29219238281250004, 10.705737304687501
1520531124951196567, 0.108390656366225, -0.04926848016646591, -0.001864212763055467, -1.0190808105468752, -0.279019775390625, 10.65544189453125
1520531124956212567, 0.08575378710055148, -0.04261057744126781, -0.007989483270237714, -0.9795629882812501, -0.326920166015625, 10.615924072265626
1520531124961228567, 0.06045375674479871, -0.034354778062022175, -0.013049489341388268, -0.9819580078125001, -0.32572265625, 10.601553955078126
1520531124966242567, 0.03675162304309349, -0.02556634646476069, -0.017576863194522972, -1.014290771484375, -0.33410522460937503, 10.5811962890625
1520531124971259567, 0.013582121559404116, -0.018109495412538822, -0.023702133701705222, -0.9867480468750001, -0.34129028320312504, 10.511740722656251
1520531124976275567, -0.00692421883420602, -0.007723167161229791, -0.0290284558818637, -0.980760498046875, -0.35206787109375004, 10.479407958984375
1520531124981290567, -0.027430559227816155, 0.003994741635118857, -0.030360036426903318, -0.9460327148437501, -0.336500244140625, 10.435100097656251
1520531124986306567, -0.04500742242233913, 0.018375811521546746, -0.03595267471606972, -0.93166259765625, -0.338895263671875, 10.431507568359375
1520531124991321567, -0.06018744063579079, 0.031691616971942935, -0.039681100242180654, -0.9220825195312501, -0.33410522460937503, 10.420729980468751
1520531124996336567, -0.0727042977591632, 0.04607268685837083, -0.04447479020432328, -0.9005273437500001, -0.35206787109375004, 10.388397216796875
1520531125001352567, -0.08575378710055148, 0.06045375674479871, -0.051665325147537224, -0.8574169921875, -0.336500244140625, 10.323731689453126
1520531125006369567, -0.09587379924285258, 0.07563377495825037, -0.05965480841777494, -0.8454418945312501, -0.3113525390625, 10.340496826171876
1520531125011384567, -0.1059938113851537, 0.08868326429963864, -0.06444849837991756, -0.846639404296875, -0.30177246093750004, 10.393187255859376
1520531125016398567, -0.11424961076439932, 0.09773801200590805, -0.06844324001503643, -0.8346643066406251, -0.255069580078125, 10.412347412109375
1520531125021414567, -0.11691277185447857, 0.10466223084011407, -0.07483482663122659, -0.7903564453125, -0.233514404296875, 10.419532470703125
1520531125026430567, -0.1195759329445578, 0.10972223691126462, -0.07483482663122659, -0.7855664062500001, -0.19639160156250002, 10.48300048828125
1520531125031447567, -0.12303804236166081, 0.10572749527614576, -0.07110640110511567, -0.7664062500000001, -0.15208374023437501, 10.494975585937501
1520531125036462567, -0.12144014570761327, 0.10093380531400313, -0.06444849837991756, -0.731678466796875, -0.15328125, 10.5141357421875
1520531125041478567, -0.12197277792562912, 0.09693906367888427, -0.05512743456464023, -0.7364685058593751, -0.13651611328125002, 10.45426025390625
1520531125046492567, -0.11877698461753403, 0.09294432204376542, -0.04261057744126781, -0.722098388671875, -0.09101074218750001, 10.471025390625
1520531125051508567, -0.11265171411035178, 0.08815063208162278, -0.02929477199087162, -0.73527099609375, -0.0622705078125, 10.46384033203125
1520531125056525567, -0.10519486305812992, 0.08122641324741676, -0.017843179303530896, -0.743653564453125, -0.0335302734375, 10.453062744140626
1520531125061539567, -0.09693906367888427, 0.07669903939428206, -0.006657902725198096, -0.884959716796875, -0.09340576171875001, 10.493778076171875
1520531125066554567, -0.08442220655551186, 0.07323692997717905, -0.0029294771990871623, -0.9376501464843751, -0.18441650390625, 10.44468017578125
1520531125071570567, -0.07430219441321075, 0.07297061386817114, -0.002663161090079238, -0.9196875, -0.15567626953125, 10.433902587890625
1520531125076587567, -0.06311691783487795, 0.07749798772130584, -0.005326322180158476, -0.97716796875, -0.15328125, 10.3895947265625
1520531125081603567, -0.04926848016646591, 0.08442220655551186, -0.009321063815277334, -1.050216064453125, -0.19399658203125, 10.368039550781251
1520531125086618567, -0.035153726389045944, 0.09028116095368618, -0.01384843766841204, -1.0681787109375, -0.22153930664062502, 10.391989746093751
1520531125091633567, -0.01944107595757844, 0.09347695426178126, -0.022636869265673525, -1.01309326171875, -0.239501953125, 10.390792236328126
1520531125096647567, -0.007456851052221868, 0.09560748313384466, -0.02929477199087162, -0.925675048828125, -0.22632934570312502, 10.481802978515626
1520531125101664567, 0.003994741635118857, 0.08788431597261487, -0.03142530086293501, -0.9580078125, -0.22034179687500002, 10.526110839843751
1520531125106680567, 0.01384843766841204, 0.08202536157444054, -0.034354778062022175, -0.91250244140625, -0.202379150390625, 10.477012939453125
1520531125111695567, 0.02556634646476069, 0.07510114274023452, -0.03648530693408557, -0.871787109375, -0.199984130859375, 10.5380859375
1520531125116710567, 0.033555829734998405, 0.07084008499610774, -0.034354778062022175, -0.8430468750000001, -0.17603393554687502, 10.4853955078125
1520531125121727567, 0.043942157986307434, 0.06950850445106813, -0.03195793308095086, -0.779578857421875, -0.173638916015625, 10.527308349609376
1520531125126742567, 0.05273058958356892, 0.06604639503396512, -0.026098978682776535, -0.7556286621093751, -0.111368408203125, 10.488988037109376
1520531125131758567, 0.06018744063579079, 0.06285060172587002, -0.020506340393610135, -0.71611083984375, -0.0622705078125, 10.50216064453125
1520531125136773567, 0.06870955612404435, 0.061519021180830406, -0.009321063815277334, -0.71132080078125, -0.00718505859375, 10.441087646484375
1520531125141789567, 0.0737695621951949, 0.061519021180830406, 0.0023968449810713144, -0.7125183105468751, 0.04071533203125, 10.407557373046876
1520531125146803567, 0.07696535550328999, 0.05965480841777494, 0.01038632825130903, -0.7616162109375001, 0.0, 10.407557373046876
1520531125151821567, 0.08069378102940092, 0.05992112452678287, 0.018375811521546746, -0.789158935546875, -0.023950195312500002, 10.443482666015626
1520531125156836567, 0.08415589044650393, 0.05938849230876701, 0.0234358175926973, -0.861009521484375, -0.06466552734375, 10.50695068359375
1520531125161852567, 0.08868326429963864, 0.05273058958356892, 0.02689792700980031, -0.9077124023437501, -0.137713623046875, 10.534493408203126
1520531125166865567, 0.08868326429963864, 0.047404267403410444, 0.02822950755483993, -0.987945556640625, -0.19399658203125, 10.515333251953125
1520531125171884567, 0.09081379317170203, 0.04261057744126781, 0.02929477199087162, -1.0322534179687501, -0.21076171875000002, 10.518925781250001
1520531125176899567, 0.09347695426178126, 0.042077945223251964, 0.026098978682776535, -1.038240966796875, -0.290994873046875, 10.419532470703125
1520531125181914567, 0.09640643146086843, 0.045540054640354974, 0.023169501483689375, -1.0921289062500001, -0.326920166015625, 10.37761962890625
1520531125186929567, 0.09960222476896352, 0.04926848016646591, 0.016245282649483356, -1.157991943359375, -0.3592529296875, 10.338101806640626
1520531125191945567, 0.10199906975003482, 0.05725796343670363, 0.008788431597261486, -1.1735595703125001, -0.4071533203125, 10.323731689453126
1520531125196960567, 0.10412959862209822, 0.06471481448892549, 0.001864212763055467, -1.205892333984375, -0.437091064453125, 10.263856201171876
1520531125201976567, 0.1059938113851537, 0.07084008499610774, -0.009054747706269411, -1.205892333984375, -0.494571533203125, 10.2315234375
1520531125206992567, 0.10759170803920123, 0.07616640717626622, -0.020506340393610135, -1.215472412109375, -0.5077441406250001, 10.272238769531251
1520531125212007567, 0.10812434025721708, 0.07456851052221868, -0.030093720317895395, -1.1639794921875, -0.45385620117187503, 10.306966552734375
1520531125217022567, 0.10812434025721708, 0.0692421883420602, -0.035153726389045944, -1.157991943359375, -0.40116577148437504, 10.369237060546876
1520531125222039567, 0.10865697247523293, 0.05832322787273532, -0.03755057137011726, -1.114881591796875, -0.34129028320312504, 10.339299316406251
1520531125227054567, 0.10972223691126462, 0.04926848016646591, -0.03808320358813311, -1.06578369140625, -0.276624755859375, 10.383607177734376
1520531125232069567, 0.11291803021935971, 0.04340952576829159, -0.03382214584400633, -1.038240966796875, -0.238304443359375, 10.417137451171875
1520531125237085567, 0.11531487520043102, 0.036218990825077645, -0.03142530086293501, -0.9951306152343751, -0.173638916015625, 10.37761962890625
1520531125242101567, 0.11717908796348649, 0.02769687533682408, -0.026098978682776535, -0.999920654296875, -0.12693603515625002, 10.374027099609375
1520531125247116567, 0.12357067457967666, 0.018375811521546746, -0.023169501483689375, -1.014290771484375, -0.104183349609375, 10.38719970703125
1520531125252133567, 0.1283643645418193, 0.01731054708551505, -0.017843179303530896, -1.0071057128906251, -0.10538085937500001, 10.432705078125
1520531125257149567, 0.13262542228594607, 0.015712650431467506, -0.013582121559404116, -1.009500732421875, -0.08382568359375, 10.40156982421875
1520531125262163567, 0.1384843766841204, 0.015446334322459582, -0.008788431597261486, -1.02267333984375, -0.06945556640625, 10.420729980468751
1520531125267179567, 0.14487596330031058, 0.017044230976507126, -0.005060006071150553, -1.033450927734375, -0.0431103515625, 10.407557373046876
1520531125272195567, 0.14887070493542942, 0.020240024284602212, -0.0029294771990871623, -1.0238708496093751, -0.050295410156250005, 10.41114990234375
1520531125277210567, 0.15419702711558791, 0.026098978682776535, -0.0010652644360316954, -1.0202783203125, -0.07424560546875, 10.37761962890625
1520531125282226567, 0.1584580848597147, 0.03142530086293501, 0.001597896654047543, -1.0585986328125, -0.053887939453125006, 10.332114257812501
1520531125287241567, 0.1629854587128494, 0.03675162304309349, 0.00026631610900792384, -1.071771240234375, -0.061072998046875, 10.304571533203125
1520531125292257567, 0.16911072922003165, 0.04234426133225989, -0.0005326322180158477, -1.06099365234375, -0.085023193359375, 10.342891845703125
1520531125297272567, 0.1720402064191188, 0.04340952576829159, -0.005060006071150553, -1.01309326171875, -0.08382568359375, 10.318941650390625
1520531125302288567, 0.17683389638126143, 0.043942157986307434, -0.009853696033293183, -0.987945556640625, -0.051492919921875005, 10.36564453125
1520531125307303567, 0.17869810914431689, 0.045540054640354974, -0.013315805450396193, -0.968785400390625, -0.027542724609375003, 10.383607177734376
1520531125312319567, 0.1776328447082852, 0.046605319076386674, -0.011451592687340724, -0.968785400390625, -0.020357666015625, 10.38240966796875
1520531125317335567, 0.17710021249026936, 0.04500742242233913, -0.01038632825130903, -0.9903405761718751, -0.032332763671875, 10.400372314453126
1520531125322351567, 0.17576863194522974, 0.04607268685837083, -0.009054747706269411, -0.99393310546875, -0.032332763671875, 10.443482666015626
1520531125327366567, 0.17496968361820597, 0.0458063707493629, -0.008522115488253563, -0.9915380859375, -0.022752685546875002, 10.479407958984375
1520531125332382567, 0.17363810307316635, 0.04340952576829159, -0.009054747706269411, -0.980760498046875, -0.003592529296875, 10.435100097656251
1520531125337397567, 0.17283915474614256, 0.042077945223251964, -0.004261057744126781, -0.95561279296875, 0.023950195312500002, 10.443482666015626
1520531125342413567, 0.1709749419830871, 0.041278996896228194, 0.001331580545039619, -0.9328601074218751, 0.05748046875, 10.460247802734376
1520531125347427567, 0.16777914867499202, 0.03728425526110934, 0.007723167161229791, -0.849034423828125, 0.07903564453125, 10.450667724609376
1520531125352444567, 0.1664475681299524, 0.03222424918995878, 0.018375811521546746, -0.8538244628906251, 0.096998291015625, 10.41593994140625
1520531125357460567, 0.16325177482185732, 0.030360036426903318, 0.0290284558818637, -0.9077124023437501, 0.11017089843750001, 10.445877685546876
1520531125362475567, 0.15819176875070676, 0.026631610900792385, 0.03728425526110934, -0.95561279296875, 0.099393310546875, 10.44947021484375
1520531125367491567, 0.15233281435253243, 0.023968449810713145, 0.04234426133225989, -0.987945556640625, 0.089813232421875, 10.527308349609376
1520531125372507567, 0.14674017606336603, 0.020506340393610135, 0.04447479020432328, -1.047821044921875, 0.077838134765625, 10.527308349609376
1520531125377522567, 0.14221280221023133, 0.016777914867499202, 0.0458063707493629, -1.044228515625, 0.046702880859375004, 10.539283447265625
1520531125382538567, 0.1352885833760253, 0.017044230976507126, 0.04873584794845006, -1.005908203125, 0.041912841796875, 10.562036132812501
1520531125387554567, 0.12596751956074798, 0.02210423704765768, 0.05326322180158477, -0.99872314453125, 0.052690429687500005, 10.593171386718751
1520531125392569567, 0.12010856516257365, 0.023169501483689375, 0.05512743456464023, -1.004710693359375, 0.061072998046875, 10.601553955078126
1520531125397583567, 0.11025486912928047, 0.02556634646476069, 0.056192699000671927, -1.0023156738281251, 0.010777587890625, 10.61233154296875
1520531125402600567, 0.09693906367888427, 0.028762139772855775, 0.05912217619975909, -1.0370434570312501, 0.052690429687500005, 10.62670166015625
1520531125407616567, 0.08548747099154355, 0.02929477199087162, 0.06311691783487795, -1.01788330078125, 0.06346801757812501, 10.623109130859376
1520531125412630567, 0.07456851052221868, 0.02822950755483993, 0.06524744670694134, -1.014290771484375, 0.037122802734375, 10.65544189453125
1520531125417647567, 0.06471481448892549, 0.024501082028728992, 0.06684534336098888, -1.02746337890625, -0.028740234375, 10.667416992187501
1520531125422663567, 0.05246427347456099, 0.01944107595757844, 0.0692421883420602, -1.0585986328125, -0.04071533203125, 10.630294189453126
1520531125427679567, 0.04181162911424404, 0.014114753777419964, 0.06631271114297303, -1.033450927734375, -0.053887939453125006, 10.614726562500001
1520531125432693567, 0.031691616971942935, 0.010652644360316953, 0.06631271114297303, -0.983155517578125, -0.056282958984375006, 10.63388671875
1520531125437710567, 0.021571604829641832, 0.006125270507182248, 0.06711165946999681, -0.987945556640625, -0.0814306640625, 10.61712158203125
1520531125442725567, 0.011451592687340724, 0.004261057744126781, 0.06604639503396512, -0.96998291015625, -0.061072998046875, 10.60275146484375
1520531125447739567, 0.001597896654047543, 0.0005326322180158477, 0.06551376281594927, -1.01309326171875, -0.080233154296875, 10.611134033203125
1520531125452757567, -0.007723167161229791, -0.005858954398174325, 0.06578007892495719, -1.02746337890625, -0.087418212890625, 10.58359130859375
1520531125457772567, -0.01731054708551505, -0.010652644360316953, 0.0625842856168621, -1.05620361328125, -0.07304809570312501, 10.601553955078126
1520531125462787567, -0.0234358175926973, -0.01038632825130903, 0.05858954398174324, -1.014290771484375, -0.13651611328125002, 10.605146484375
1520531125467802567, -0.02822950755483993, -0.008522115488253563, 0.05566006678265608, -1.033450927734375, -0.140108642578125, 10.518925781250001
1520531125472817567, -0.03382214584400633, -0.006125270507182248, 0.05060006071150553, -1.081351318359375, -0.12094848632812501, 10.48300048828125
1520531125477834567, -0.038615835806148954, 0.0010652644360316954, 0.043942157986307434, -1.07296875, -0.108973388671875, 10.455457763671875
1520531125482850567, -0.04074636467821235, 0.00825579937924564, 0.03834951969714103, -1.031055908203125, -0.10298583984375001, 10.41114990234375
1520531125487865567, -0.04074636467821235, 0.013315805450396193, 0.033555829734998405, -1.055006103515625, -0.07903564453125, 10.391989746093751
1520531125492881567, -0.04500742242233913, 0.021571604829641832, 0.030360036426903318, -1.059796142578125, -0.10059082031250001, 10.409952392578125
1520531125497896567, -0.04447479020432328, 0.02929477199087162, 0.02769687533682408, -1.063388671875, -0.124541015625, 10.353669433593751
1520531125502912567, -0.043143209659283664, 0.03542004249805387, 0.021837920938649755, -1.069376220703125, -0.13412109375, 10.354866943359376
1520531125507927567, -0.043143209659283664, 0.04101268078722027, 0.01997370817559429, -1.0298583984375, -0.16525634765625, 10.4374951171875
1520531125512942567, -0.04074636467821235, 0.046605319076386674, 0.018109495412538822, -0.9975256347656251, -0.18082397460937502, 10.400372314453126
1520531125517959567, -0.03888215191515688, 0.04633900296737875, 0.017044230976507126, -0.9580078125, -0.14609619140625002, 10.44228515625
1520531125522975567, -0.03755057137011726, 0.042077945223251964, 0.021837920938649755, -0.929267578125, -0.1389111328125, 10.526110839843751
1520531125527991567, -0.03941478413317273, 0.03941478413317273, 0.026098978682776535, -0.9412426757812501, -0.149688720703125, 10.526110839843751
1520531125533007567, -0.04181162911424404, 0.034354778062022175, 0.02822950755483993, -0.9532177734375, -0.1197509765625, 10.509345703125
1520531125538022567, -0.04101268078722027, 0.030093720317895395, 0.032756881407974635, -0.99393310546875, -0.1293310546875, 10.509345703125
1520531125543037567, -0.04261057744126781, 0.02769687533682408, 0.032756881407974635, -0.9711804199218751, -0.12094848632812501, 10.499765625
1520531125548052567, -0.04447479020432328, 0.025832662573768612, 0.02982740420888747, -0.9759704589843751, -0.11017089843750001, 10.450667724609376
1520531125553068567, -0.04261057744126781, 0.02290318537468145, 0.02769687533682408, -0.99393310546875, -0.099393310546875, 10.459050292968751
1520531125558084567, -0.038615835806148954, 0.02077265650261806, 0.025300030355752765, -0.961600341796875, -0.10777587890625001, 10.490185546875
1520531125563098567, -0.038615835806148954, 0.017843179303530896, 0.021837920938649755, -0.93884765625, -0.111368408203125, 10.45426025390625
1520531125568114567, -0.03595267471606972, 0.015446334322459582, 0.022636869265673525, -0.93884765625, -0.140108642578125, 10.47821044921875
1520531125573131567, -0.03382214584400633, 0.016245282649483356, 0.01864212763055467, -1.02746337890625, -0.16525634765625, 10.4853955078125
1520531125578146567, -0.030093720317895395, 0.016245282649483356, 0.016245282649483356, -1.095721435546875, -0.17124389648437502, 10.467432861328126
1520531125583160567, -0.02689792700980031, 0.015446334322459582, 0.014381069886427887, -1.131646728515625, -0.188009033203125, 10.4758154296875
1520531125588178567, -0.022636869265673525, 0.01731054708551505, 0.009054747706269411, -1.101708984375, -0.17483642578125, 10.486593017578125
1520531125593193567, -0.021305288720633905, 0.021305288720633905, 0.00692421883420602, -1.090931396484375, -0.178428955078125, 10.474617919921876
1520531125598208567, -0.014913702104443736, 0.02476739813773692, 0.006125270507182248, -1.09452392578125, -0.15567626953125, 10.49258056640625
1520531125603224567, -0.011451592687340724, 0.029561088099879545, 0.0029294771990871623, -1.12326416015625, -0.142503662109375, 10.481802978515626
1520531125608240567, -0.009587379924285258, 0.033555829734998405, 0.0005326322180158477, -1.146016845703125, -0.09101074218750001, 10.47821044921875
1520531125613254567, -0.004793689962142629, 0.040480048569204424, -0.002663161090079238, -1.114881591796875, -0.124541015625, 10.420729980468751
1520531125618272567, 0.001331580545039619, 0.04447479020432328, -0.004527373853134706, -1.112486572265625, -0.130528564453125, 10.413544921875001
1520531125623286567, 0.00692421883420602, 0.04953479627547384, -0.006391586616190172, -1.06099365234375, -0.118553466796875, 10.4566552734375
1520531125628303567, 0.008788431597261486, 0.05539375067364816, -0.009054747706269411, -1.0705737304687502, -0.12334350585937501, 10.41593994140625
1520531125633318567, 0.013582121559404116, 0.05672533121868778, -0.011185276578332801, -1.0322534179687501, -0.092208251953125, 10.417137451171875
1520531125638334567, 0.01864212763055467, 0.0569916473276957, -0.012783173232380344, -0.987945556640625, -0.085023193359375, 10.453062744140626
1520531125643348567, 0.020240024284602212, 0.05033374460249761, -0.014114753777419964, -0.9544152832031251, -0.05748046875, 10.520123291015626
1520531125648364567, 0.023968449810713145, 0.041278996896228194, -0.012783173232380344, -0.9675878906250001, -0.10059082031250001, 10.544073486328125
1520531125653380567, 0.02556634646476069, 0.034354778062022175, -0.011984224905356573, -0.9711804199218751, -0.096998291015625, 10.560838623046875
1520531125658396567, 0.028762139772855775, 0.02769687533682408, -0.010120012142301106, -1.0202783203125, -0.1293310546875, 10.556048583984376
1520531125663410567, 0.03195793308095086, 0.022636869265673525, -0.010918960469324878, -1.038240966796875, -0.15208374023437501, 10.518925781250001
1520531125668430567, 0.03328951362599048, 0.01864212763055467, -0.012250541014364496, -1.05620361328125, -0.1484912109375, 10.486593017578125
1520531125673443567, 0.03382214584400633, 0.017576863194522972, -0.014381069886427887, -1.1088940429687502, -0.16645385742187502, 10.432705078125
1520531125678457567, 0.038615835806148954, 0.013582121559404116, -0.016777914867499202, -1.0969189453125001, -0.197589111328125, 10.41114990234375
1520531125683473567, 0.03808320358813311, 0.011451592687340724, -0.01864212763055467, -1.13284423828125, -0.17244140625, 10.364447021484375
1520531125688489567, 0.04074636467821235, 0.012783173232380344, -0.021038972611625982, -1.1053015136718751, -0.21794677734375, 10.369237060546876
1520531125693504567, 0.04500742242233913, 0.01384843766841204, -0.024501082028728992, -1.124461669921875, -0.26105712890625, 10.35845947265625
1520531125698519567, 0.048203215730434214, 0.011185276578332801, -0.02822950755483993, -1.1543994140625, -0.24908203125, 10.350076904296875
1520531125703537567, 0.049002164057457984, 0.010652644360316953, -0.030093720317895395, -1.191522216796875, -0.276624755859375, 10.41114990234375
1520531125708551567, 0.05193164125654515, 0.009321063815277334, -0.03222424918995878, -1.146016845703125, -0.3209326171875, 10.391989746093751
1520531125713566567, 0.05193164125654515, 0.013049489341388268, -0.03408846195301425, -1.141226806640625, -0.3592529296875, 10.400372314453126
1520531125718582567, 0.05113269292952138, 0.015180018213451659, -0.030892668644919165, -1.098116455078125, -0.3496728515625, 10.407557373046876
1520531125723599567, 0.05193164125654515, 0.014114753777419964, -0.029561088099879545, -1.119671630859375, -0.31255004882812504, 10.423125
1520531125728615567, 0.05246427347456099, 0.013582121559404116, -0.02849582366384785, -1.1436218261718751, -0.307760009765625, 10.421927490234376
1520531125733630567, 0.05113269292952138, 0.01171790879634865, -0.025832662573768612, -1.082548828125, -0.296982421875, 10.41114990234375
1520531125738645567, 0.04713795129440252, 0.009321063815277334, -0.02290318537468145, -1.033450927734375, -0.214354248046875, 10.435100097656251
1520531125743661567, 0.04447479020432328, 0.005060006071150553, -0.021571604829641832, -1.02746337890625, -0.15687377929687502, 10.450667724609376
1520531125748676567, 0.04340952576829159, 0.004527373853134706, -0.013315805450396193, -1.033450927734375, -0.10777587890625001, 10.4374951171875
1520531125753691567, 0.03808320358813311, 0.001331580545039619, -0.007989483270237714, -1.082548828125, -0.041912841796875, 10.433902587890625
1520531125758709567, 0.03542004249805387, 0.003994741635118857, -0.00346210941710301, -1.1088940429687502, 0.02155517578125, 10.459050292968751
1520531125763722567, 0.032756881407974635, 0.008522115488253563, 0.002663161090079238, -1.0789562988281252, 0.051492919921875005, 10.471025390625
1520531125768739567, 0.02716424311880823, 0.009587379924285258, 0.01038632825130903, -1.0921289062500001, 0.049097900390625004, 10.474617919921876
1520531125773755567, 0.020240024284602212, 0.01171790879634865, 0.014114753777419964, -1.1436218261718751, 0.049097900390625004, 10.508148193359375
1520531125778770567, 0.01597896654047543, 0.013315805450396193, 0.019174759848570515, -1.1136840820312501, 0.053887939453125006, 10.560838623046875
1520531125783786567, 0.011984224905356573, 0.013582121559404116, 0.023968449810713145, -1.184337158203125, -0.00718505859375, 10.613529052734375
1520531125788802567, 0.004793689962142629, 0.01038632825130903, 0.026098978682776535, -1.1879296875, -0.041912841796875, 10.659034423828125
1520531125793817567, -0.00026631610900792384, 0.003195793308095086, 0.02769687533682408, -1.112486572265625, -0.05748046875, 10.66981201171875
1520531125798831567, -0.006391586616190172, -0.0023968449810713144, 0.028762139772855775, -1.1136840820312501, -0.067060546875, 10.659034423828125
1520531125803848567, -0.009853696033293183, -0.0055926382891664005, 0.03195793308095086, -1.081351318359375, -0.10059082031250001, 10.6482568359375
1520531125808863567, -0.015446334322459582, -0.007456851052221868, 0.037017939152101415, -1.06099365234375, -0.108973388671875, 10.6099365234375
1520531125813878567, -0.019174759848570515, -0.007456851052221868, 0.037816887479125184, -1.081351318359375, -0.092208251953125, 10.565628662109376
1520531125818896567, -0.02077265650261806, -0.010652644360316953, 0.0346210941710301, -1.088536376953125, -0.106578369140625, 10.556048583984376
1520531125823910567, -0.021837920938649755, -0.009587379924285258, 0.033555829734998405, -1.0621911621093751, -0.099393310546875, 10.5141357421875
1520531125828925567, -0.023702133701705222, -0.011185276578332801, 0.030093720317895395, -1.07296875, -0.086220703125, 10.49737060546875
1520531125833942567, -0.024501082028728992, -0.013315805450396193, 0.025300030355752765, -1.09931396484375, -0.106578369140625, 10.4614453125
1520531125838957567, -0.021837920938649755, -0.012516857123372421, 0.023169501483689375, -1.07296875, -0.06945556640625, 10.494975585937501
1520531125843973567, -0.020240024284602212, -0.011984224905356573, 0.025033714246744842, -1.0837463378906251, -0.026345214843750003, 10.496173095703126
1520531125848987567, -0.017576863194522972, -0.01171790879634865, 0.027430559227816155, -1.0681787109375, -0.0059875488281250005, 10.509345703125
1520531125854005567, -0.01384843766841204, -0.012516857123372421, 0.032756881407974635, -1.0777587890625, 0.022752685546875002, 10.5045556640625
1520531125859019567, -0.009054747706269411, -0.014381069886427887, 0.03648530693408557, -1.086141357421875, 0.022752685546875002, 10.473420410156251
1520531125864034567, -0.007456851052221868, -0.017843179303530896, 0.04261057744126781, -1.1005114746093752, 0.025147705078125002, 10.455457763671875
1520531125869051567, -0.0023968449810713144, -0.021837920938649755, 0.0458063707493629, -1.10410400390625, 0.034727783203125, 10.493778076171875
1520531125874067567, 0.003994741635118857, -0.023169501483689375, 0.047404267403410444, -1.117276611328125, 0.0, 10.462642822265625
1520531125879082567, 0.01038632825130903, -0.019174759848570515, 0.04793689962142629, -1.17116455078125, -0.020357666015625, 10.426717529296875
1520531125884097567, 0.01731054708551505, -0.013582121559404116, 0.041278996896228194, -1.1903247070312502, -0.082628173828125, 10.37761962890625
1520531125889113567, 0.02210423704765768, -0.007190534943213944, 0.03302319751698256, -1.1903247070312502, -0.094603271484375, 10.3512744140625
1520531125894129567, 0.025832662573768612, -0.00026631610900792384, 0.02423476591972107, -1.174757080078125, -0.111368408203125, 10.36324951171875
1520531125899144567, 0.03222424918995878, 0.009054747706269411, 0.01464738599543581, -1.18553466796875, -0.143701171875, 10.342891845703125
1520531125904160567, 0.03728425526110934, 0.01651159875849128, 0.006391586616190172, -1.193917236328125, -0.19399658203125, 10.34887939453125
1520531125909176567, 0.03941478413317273, 0.02210423704765768, -0.0021305288720633907, -1.17116455078125, -0.183218994140625, 10.356064453125
1520531125914190567, 0.04234426133225989, 0.02556634646476069, -0.009587379924285258, -1.162781982421875, -0.15208374023437501, 10.375224609375001
1520531125919206567, 0.04767058351241837, 0.025832662573768612, -0.017576863194522972, -1.1268566894531251, -0.183218994140625, 10.40396484375
1520531125924222567, 0.04793689962142629, 0.02290318537468145, -0.020240024284602212, -1.136436767578125, -0.199984130859375, 10.438692626953125
1520531125929239567, 0.04793689962142629, 0.016245282649483356, -0.020240024284602212, -1.119671630859375, -0.17244140625, 10.43989013671875
1520531125934254567, 0.04713795129440252, 0.010652644360316953, -0.025300030355752765, -1.095721435546875, -0.207169189453125, 10.413544921875001
1520531125939270567, 0.045540054640354974, 0.003195793308095086, -0.025033714246744842, -1.0777587890625, -0.20597167968750002, 10.465037841796876
1520531125944284567, 0.04181162911424404, -0.005858954398174325, -0.021837920938649755, -1.0190808105468752, -0.17962646484375, 10.459050292968751
1520531125949300567, 0.042077945223251964, -0.015180018213451659, -0.018908443739562592, -0.9975256347656251, -0.18082397460937502, 10.43989013671875
1520531125954316567, 0.0391484680241648, -0.023702133701705222, -0.015712650431467506, -1.025068359375, -0.192799072265625, 10.45426025390625
1520531125959332567, 0.03542004249805387, -0.03328951362599048, -0.012250541014364496, -1.04662353515625, -0.219144287109375, 10.405162353515626
1520531125964346567, 0.03328951362599048, -0.04181162911424404, -0.011451592687340724, -1.057401123046875, -0.25147705078125, 10.38719970703125
1520531125969363567, 0.030360036426903318, -0.04846953183944214, -0.010652644360316953, -1.0753637695312501, -0.30177246093750004, 10.417137451171875
1520531125974379567, 0.03062635253591124, -0.05033374460249761, -0.010652644360316953, -1.071771240234375, -0.367635498046875, 10.399174804687501
1520531125979393567, 0.029561088099879545, -0.05193164125654515, -0.007456851052221868, -1.063388671875, -0.41194335937500004, 10.346484375000001
1520531125984410567, 0.0234358175926973, -0.053529537910592694, -0.0010652644360316954, -1.0298583984375, -0.42391845703125003, 10.3416943359375
1520531125989425567, 0.019707392066586366, -0.05832322787273532, 0.007456851052221868, -1.086141357421875, -0.386795654296875, 10.38240966796875
1520531125994446567, 0.019707392066586366, -0.06311691783487795, 0.014381069886427887, -1.07296875, -0.32213012695312504, 10.30576904296875
1520531125999456567, 0.016777914867499202, -0.06631271114297303, 0.019174759848570515, -1.1136840820312501, -0.29458740234375, 10.314151611328125
1520531126004472567, 0.011984224905356573, -0.0681769239060285, 0.0234358175926973, -1.102906494140625, -0.21195922851562501, 10.352471923828125
1520531126009488567, 0.011984224905356573, -0.07084008499610774, 0.0290284558818637, -1.0621911621093751, -0.202379150390625, 10.374027099609375
1520531126014502567, 0.007723167161229791, -0.0737695621951949, 0.03249056529896671, -1.0490185546875002, -0.18681152343750002, 10.44468017578125
1520531126019519567, 0.005326322180158476, -0.07616640717626622, 0.03568635860706179, -1.093326416015625, -0.1389111328125, 10.4758154296875
1520531126024534567, 0.0029294771990871623, -0.08282430990146432, 0.03595267471606972, -1.119671630859375, -0.17124389648437502, 10.471025390625
1520531126029550567, 0.00026631610900792384, -0.08708536764559109, 0.03542004249805387, -1.0753637695312501, -0.22273681640625, 10.568023681640625
1520531126034566567, -0.005060006071150553, -0.08708536764559109, 0.033555829734998405, -1.131646728515625, -0.207169189453125, 10.518925781250001
1520531126039580567, -0.011185276578332801, -0.09214537371674165, 0.02822950755483993, -1.12326416015625, -0.19878662109375, 10.571616210937501
1520531126044596567, -0.017576863194522972, -0.09321063815277335, 0.021305288720633905, -1.1088940429687502, -0.21674926757812502, 10.524913330078126
1520531126049613567, -0.02476739813773692, -0.09108010928070995, 0.016245282649483356, -1.1005114746093752, -0.207169189453125, 10.55964111328125
1520531126054629567, -0.03142530086293501, -0.08974852873567034, 0.012516857123372421, -1.0837463378906251, -0.21195922851562501, 10.500963134765625
1520531126059644567, -0.03808320358813311, -0.0849548387735277, 0.005326322180158476, -1.095721435546875, -0.192799072265625, 10.563233642578126
1520531126064658567, -0.043143209659283664, -0.0737695621951949, -0.0029294771990871623, -1.055006103515625, -0.124541015625, 10.52132080078125
1520531126069674567, -0.04980111238448176, -0.06285060172587002, -0.009587379924285258, -1.0011181640625, -0.12214599609375, 10.524913330078126
1520531126074690567, -0.05725796343670363, -0.055926382891664, -0.014913702104443736, -0.9520202636718751, -0.07304809570312501, 10.484197998046875
1520531126079706567, -0.06391586616190172, -0.0468716351853946, -0.016245282649483356, -0.963995361328125, -0.039517822265625, 10.528505859375
1520531126084721567, -0.0727042977591632, -0.042077945223251964, -0.020240024284602212, -1.035845947265625, -0.06945556640625, 10.606343994140625
1520531126089736567, -0.08255799379245639, -0.0402137324601965, -0.02636529479178446, -1.043031005859375, -0.067060546875, 10.63388671875
1520531126094752567, -0.09294432204376542, -0.03728425526110934, -0.030093720317895395, -0.978365478515625, -0.09101074218750001, 10.647059326171876
1520531126099768567, -0.10492854694912199, -0.029561088099879545, -0.028762139772855775, -0.8777746582031251, -0.045505371093750004, 10.7153173828125
1520531126104784567, -0.11771172018150233, -0.02689792700980031, -0.026631610900792385, -0.841849365234375, -0.086220703125, 10.700947265625
1520531126109800567, -0.13315805450396193, -0.026631610900792385, -0.02476739813773692, -0.844244384765625, -0.07065307617187501, 10.765612792968751
1520531126114815567, -0.14620754384535017, -0.02476739813773692, -0.021837920938649755, -0.7999365234375, -0.07424560546875, 10.74884765625
1520531126119832567, -0.16112124594979393, -0.021837920938649755, -0.019174759848570515, -0.868194580078125, -0.06825805664062501, 10.738070068359375
1520531126124846567, -0.1773665285992773, -0.023169501483689375, -0.019174759848570515, -0.908909912109375, -0.077838134765625, 10.754835205078125
1520531126129862567, -0.1920139145947131, -0.02210423704765768, -0.017576863194522972, -0.9568103027343751, -0.094603271484375, 10.699749755859376
1520531126134877567, -0.20479708782709344, -0.01944107595757844, -0.017576863194522972, -0.9711804199218751, -0.108973388671875, 10.623109130859376
1520531126139893567, -0.2146507838603866, -0.02077265650261806, -0.017843179303530896, -0.9340576171875, -0.1149609375, 10.627899169921875
1520531126144908567, -0.22503711211169564, -0.02423476591972107, -0.012783173232380344, -0.9113049316406251, -0.118553466796875, 10.558443603515625
1520531126149925567, -0.23382554370895714, -0.023169501483689375, -0.006125270507182248, -0.89813232421875, -0.143701171875, 10.46863037109375
1520531126154940567, -0.244744504178282, -0.02290318537468145, 0.003195793308095086, -0.89334228515625, -0.16166381835937502, 10.42552001953125
1520531126159955567, -0.2527339874485197, -0.023968449810713145, 0.009321063815277334, -0.9005273437500001, -0.2347119140625, 10.45426025390625
1520531126164971567, -0.26098978682776536, -0.02636529479178446, 0.014913702104443736, -0.9328601074218751, -0.296982421875, 10.397977294921876
1520531126169987567, -0.2660497928989159, -0.0290284558818637, 0.021837920938649755, -0.95561279296875, -0.3400927734375, 10.393187255859376
1520531126175002567, -0.2705771667520506, -0.03328951362599048, 0.02636529479178446, -0.959205322265625, -0.354462890625, 10.346484375000001
1520531126180018567, -0.27430559227816154, -0.03382214584400633, 0.02689792700980031, -0.940045166015625, -0.36404296875000003, 10.3848046875
1520531126185033567, -0.2764361211502249, -0.026098978682776535, 0.024501082028728992, -0.9735754394531251, -0.384400634765625, 10.4183349609375
1520531126190049567, -0.27377296006014573, -0.010120012142301106, 0.018109495412538822, -1.00351318359375, -0.360450439453125, 10.4470751953125
1520531126195064567, -0.27377296006014573, 0.007190534943213944, 0.012250541014364496, -1.02267333984375, -0.38200561523437504, 10.491383056640625
1520531126200080567, -0.2724413795151061, 0.027430559227816155, 0.00346210941710301, -1.0202783203125, -0.365240478515625, 10.520123291015626
1520531126205097567, -0.27217506340609815, 0.04340952576829159, -0.003195793308095086, -1.0106982421875002, -0.36164794921875004, 10.585986328125001
1520531126210112567, -0.2703108506430427, 0.05779059565471947, -0.012516857123372421, -0.985550537109375, -0.37362304687500003, 10.578801269531251
1520531126215126567, -0.26658242511693175, 0.06950850445106813, -0.019174759848570515, -0.978365478515625, -0.365240478515625, 10.565628662109376
1520531126220142567, -0.26471821235387627, 0.07137271721412358, -0.024501082028728992, -0.9077124023437501, -0.374820556640625, 10.534493408203126
1520531126225158567, -0.26418558013586046, 0.07217166554114736, -0.02689792700980031, -0.9053173828125001, -0.365240478515625, 10.547666015625001
1520531126230174567, -0.2617887351547891, 0.07243798165015529, -0.02689792700980031, -0.9148974609375, -0.367635498046875, 10.462642822265625
1520531126235191567, -0.25752767741066235, 0.06657902725198096, -0.022370553156665602, -0.9304650878906251, -0.358055419921875, 10.374027099609375
1520531126240204567, -0.2545982002115752, 0.05486111845563231, -0.014381069886427887, -0.9220825195312501, -0.386795654296875, 10.323731689453126
1520531126245220567, -0.25086977468546423, 0.0402137324601965, -0.0023968449810713144, -0.966390380859375, -0.4071533203125, 10.2842138671875
1520531126250237567, -0.241282394761179, 0.02476739813773692, 0.003728425526110934, -1.005908203125, -0.468226318359375, 10.189610595703126
1520531126255252567, -0.23036343429185413, 0.007190534943213944, 0.010918960469324878, -1.04183349609375, -0.51971923828125, 10.13811767578125
1520531126260268567, -0.21971078993153717, -0.006391586616190172, 0.017576863194522972, -1.0370434570312501, -0.568817138671875, 9.98962646484375
1520531126265283567, -0.20319919117304588, -0.021305288720633905, 0.020240024284602212, -1.047821044921875, -0.63947021484375, 9.923763427734375
1520531126270299567, -0.18855180517761008, -0.03595267471606972, 0.0234358175926973, -1.0406359863281252, -0.71611083984375, 9.90580078125
1520531126275314567, -0.17337178696415842, -0.050067428493489684, 0.02716424311880823, -1.026265869140625, -0.7041357421875001, 9.883048095703126
1520531126280330567, -0.15472965933360375, -0.06498113059793342, 0.0290284558818637, -1.069376220703125, -0.798739013671875, 9.906998291015626
1520531126285345567, -0.1374191122480887, -0.0737695621951949, 0.028762139772855775, -1.0705737304687502, -0.820294189453125, 9.844727783203126
1520531126290361567, -0.11904330072654196, -0.0814927293564247, 0.0290284558818637, -1.05620361328125, -0.858614501953125, 9.86987548828125
1520531126295376567, -0.10173275364102691, -0.08388957433749601, 0.026098978682776535, -1.0753637695312501, -0.8765771484375, 9.909393310546875
1520531126300392567, -0.0814927293564247, -0.08362325822848808, 0.02210423704765768, -1.06578369140625, -0.8322692871093751, 9.89382568359375
1520531126305407567, -0.06205165339884625, -0.07909588437535338, 0.01944107595757844, -1.107696533203125, -0.8286767578125, 9.877060546875
1520531126310423567, -0.04181162911424404, -0.07190534943213944, 0.011451592687340724, -1.1603869628906252, -0.8562194824218751, 9.86508544921875
1520531126315439567, -0.021038972611625982, -0.06444849837991756, 0.004793689962142629, -1.1687695312500002, -0.839454345703125, 9.945318603515625
1520531126320455567, -0.0021305288720633907, -0.05779059565471947, -0.005060006071150553, -1.1543994140625, -0.8214916992187501, 9.988428955078126
1520531126325471567, 0.013582121559404116, -0.05246427347456099, -0.013582121559404116, -1.110091552734375, -0.8047265625000001, 10.091414794921876
1520531126330486567, 0.030360036426903318, -0.04793689962142629, -0.01997370817559429, -1.064586181640625, -0.7939489746093751, 10.16206787109375
1520531126335502567, 0.04340952576829159, -0.04633900296737875, -0.0234358175926973, -1.014290771484375, -0.729283447265625, 10.1117724609375
1520531126340518567, 0.05858954398174324, -0.04447479020432328, -0.02929477199087162, -0.9867480468750001, -0.6550378417968751, 10.152487792968751
1520531126345532567, 0.07190534943213944, -0.04420847409531536, -0.03222424918995878, -0.980760498046875, -0.621507568359375, 10.1165625
1520531126350549567, 0.08735168375459902, -0.04340952576829159, -0.03568635860706179, -0.9196875, -0.599952392578125, 10.091414794921876
1520531126355564567, 0.10439591473110614, -0.04367584187729951, -0.03941478413317273, -0.8454418945312501, -0.6658154296875001, 10.077044677734376
1520531126360579567, 0.1206411973805895, -0.0402137324601965, -0.03941478413317273, -0.8921447753906251, -0.7041357421875001, 10.069859619140626
1520531126365594567, 0.13821806057511246, -0.03542004249805387, -0.03994741635118858, -0.841849365234375, -0.7520361328125, 10.055489501953126
1520531126370611567, 0.15792545264169883, -0.031158984753927088, -0.03648530693408557, -0.724493408203125, -0.820294189453125, 10.032736816406251
1520531126375625567, 0.17603494805423767, -0.02716424311880823, -0.02769687533682408, -0.805924072265625, -0.827479248046875, 10.049501953125
1520531126380642567, 0.1976065528838795, -0.021038972611625982, -0.022370553156665602, -0.942440185546875, -0.833466796875, 10.045909423828126
1520531126385656567, 0.2221076349126085, -0.016245282649483356, -0.021038972611625982, -0.99393310546875, -0.7771838378906251, 9.98962646484375
1520531126390672567, 0.24501082028728993, -0.01597896654047543, -0.021837920938649755, -1.016685791015625, -0.702938232421875, 9.994416503906251
1520531126395687567, 0.2695119023160189, -0.014913702104443736, -0.021571604829641832, -1.016685791015625, -0.67779052734375, 9.9105908203125
1520531126400704567, 0.29534456488978755, -0.01864212763055467, -0.022370553156665602, -1.074166259765625, -0.559237060546875, 9.87945556640625
1520531126405720567, 0.3171824858284373, -0.023702133701705222, -0.02210423704765768, -0.863404541015625, -0.599952392578125, 9.8626904296875
1520531126410736567, 0.3382214584400633, -0.02423476591972107, -0.018375811521546746, -0.8131091308593751, -0.667012939453125, 9.926158447265626
1520531126415749567, 0.35952674716069716, -0.018908443739562592, -0.012783173232380344, -0.7903564453125, -0.6382727050781251, 10.060279541015625
1520531126420767567, 0.377636242573236, -0.010120012142301106, -0.007456851052221868, -0.8286767578125, -0.619112548828125, 10.1405126953125
1520531126425782567, 0.3928162607866877, 0.001331580545039619, -0.003994741635118857, -0.985550537109375, -0.55564453125, 10.279423828125001
1520531126430798567, 0.40506680180105215, 0.013049489341388268, -0.007723167161229791, -0.980760498046875, -0.5053491210937501, 10.342891845703125
1520531126435813567, 0.4146541817253374, 0.023968449810713145, -0.01038632825130903, -0.925675048828125, -0.5221142578125, 10.388397216796875
1520531126440829567, 0.42264366499557515, 0.03382214584400633, -0.009321063815277334, -0.85502197265625, -0.4742138671875, 10.534493408203126
1520531126445844567, 0.42823630328474155, 0.050067428493489684, -0.004527373853134706, -0.925675048828125, -0.42272094726562504, 10.533295898437501
1520531126450861567, 0.43169841270184456, 0.06311691783487795, -0.003994741635118857, -1.0669812011718751, -0.32213012695312504, 10.638676757812501
1520531126455875567, 0.4298341999387891, 0.07004113666908397, -0.0055926382891664005, -0.996328125, -0.354462890625, 10.663824462890625
1520531126460892567, 0.4311657804838287, 0.07563377495825037, -0.006125270507182248, -0.9328601074218751, -0.34248779296875004, 10.661429443359376
1520531126465906567, 0.42637209052168606, 0.07563377495825037, -0.0029294771990871623, -0.91729248046875, -0.329315185546875, 10.651849365234376
1520531126470922567, 0.4183826072514483, 0.07456851052221868, 0.0007989483270237715, -0.97716796875, -0.28979736328125, 10.611134033203125
1520531126475938567, 0.41199102063525816, 0.07243798165015529, 0.004527373853134706, -0.928070068359375, -0.279019775390625, 10.6290966796875
1520531126480954567, 0.4034689051470046, 0.0727042977591632, 0.01171790879634865, -0.996328125, -0.25387207031250003, 10.56922119140625
1520531126485969567, 0.3949467896587511, 0.07084008499610774, 0.014381069886427887, -1.031055908203125, -0.17962646484375, 10.606343994140625
1520531126490985567, 0.3856257258434737, 0.0681769239060285, 0.01651159875849128, -1.0454260253906251, -0.18561401367187502, 10.671009521484375
1520531126496000567, 0.37230992039307753, 0.07030745277809189, 0.019707392066586366, -1.064586181640625, -0.19639160156250002, 10.6865771484375
1520531126501015567, 0.35952674716069716, 0.07536745884924245, 0.019174759848570515, -1.064586181640625, -0.13651611328125002, 10.706934814453126
1520531126506032567, 0.3454119933832772, 0.08335694211948017, 0.017843179303530896, -1.081351318359375, -0.143701171875, 10.698552246093751
1520531126511047567, 0.3318298718238731, 0.09187905760773372, 0.014381069886427887, -1.1112890625, -0.142503662109375, 10.773995361328126
1520531126516062567, 0.31878038248248486, 0.09906959255094767, 0.014114753777419964, -1.0777587890625, -0.17483642578125, 10.77040283203125
1520531126521079567, 0.30120351928796185, 0.10492854694912199, 0.015180018213451659, -1.0490185546875002, -0.17124389648437502, 10.824290771484376
1520531126526095567, 0.2836266560934389, 0.10439591473110614, 0.01944107595757844, -1.0238708496093751, -0.18082397460937502, 10.847043457031251
1520531126531110567, 0.26658242511693175, 0.10199906975003482, 0.026098978682776535, -0.9819580078125001, -0.204774169921875, 10.829080810546875
1520531126536125567, 0.24873924581340087, 0.09640643146086843, 0.03542004249805387, -1.01309326171875, -0.18561401367187502, 10.865006103515626
1520531126541142567, 0.23089606650986996, 0.09294432204376542, 0.043143209659283664, -1.0106982421875002, -0.1580712890625, 10.848240966796876
1520531126546156567, 0.21411815164237077, 0.08894958040864656, 0.049002164057457984, -0.9903405761718751, -0.1149609375, 10.874586181640625
1520531126551173567, 0.19574234012082403, 0.08628641931856733, 0.05512743456464023, -0.968785400390625, -0.06825805664062501, 10.869796142578126
1520531126556187567, 0.17869810914431689, 0.08388957433749601, 0.05912217619975909, -0.961600341796875, -0.04071533203125, 10.8494384765625
1520531126561204567, 0.16112124594979393, 0.08229167768344847, 0.06125270507182248, -0.961600341796875, -0.008382568359375, 10.824290771484376
1520531126566218567, 0.1440770149732868, 0.08069378102940092, 0.06098638896281456, -0.996328125, -0.034727783203125, 10.785970458984375
1520531126571234567, 0.1272991001057876, 0.07456851052221868, 0.06311691783487795, -0.9819580078125001, -0.0143701171875, 10.777587890625
1520531126576250567, 0.10998855302027255, 0.06631271114297303, 0.06178533728983833, -0.961600341796875, -0.0143701171875, 10.776390380859375
1520531126581266567, 0.09560748313384466, 0.06045375674479871, 0.05965480841777494, -0.98914306640625, -0.056282958984375006, 10.7440576171875
1520531126586282567, 0.08096009713840885, 0.051665325147537224, 0.05858954398174324, -0.9915380859375, -0.05987548828125, 10.790760498046875
1520531126591297567, 0.06711165946999681, 0.043942157986307434, 0.06045375674479871, -1.011895751953125, -0.04071533203125, 10.821895751953125
1520531126596312567, 0.05645901510967986, 0.0402137324601965, 0.05858954398174324, -1.050216064453125, -0.0431103515625, 10.797945556640625
1520531126601328567, 0.04447479020432328, 0.0391484680241648, 0.056192699000671927, -1.0669812011718751, -0.026345214843750003, 10.778785400390625
1520531126606344567, 0.0346210941710301, 0.04101268078722027, 0.05326322180158477, -1.0406359863281252, -0.025147705078125002, 10.77519287109375
1520531126611359567, 0.027430559227816155, 0.0391484680241648, 0.049002164057457984, -1.0621911621093751, -0.029937744140625, 10.742860107421876
1520531126616375567, 0.020506340393610135, 0.035153726389045944, 0.04287689355027574, -1.0681787109375, -0.029937744140625, 10.691367187500001
1520531126621390567, 0.014381069886427887, 0.03302319751698256, 0.03834951969714103, -1.05141357421875, -0.05987548828125, 10.700947265625
1520531126626407567, 0.01171790879634865, 0.032756881407974635, 0.03675162304309349, -1.014290771484375, -0.0718505859375, 10.639874267578126
1520531126631421567, 0.011451592687340724, 0.03195793308095086, 0.037017939152101415, -1.0322534179687501, -0.03592529296875, 10.63628173828125
1520531126636437567, 0.011451592687340724, 0.031158984753927088, 0.03542004249805387, -1.0106982421875002, -0.04071533203125, 10.627899169921875
1520531126641453567, 0.013315805450396193, 0.03195793308095086, 0.038615835806148954, -1.005908203125, -0.06945556640625, 10.59556640625
1520531126646468567, 0.01731054708551505, 0.02982740420888747, 0.04367584187729951, -1.009500732421875, -0.0814306640625, 10.647059326171876
1520531126651485567, 0.01944107595757844, 0.02423476591972107, 0.05033374460249761, -1.0406359863281252, -0.10059082031250001, 10.623109130859376
1520531126656499567, 0.02476739813773692, 0.01997370817559429, 0.05672533121868778, -1.059796142578125, -0.101788330078125, 10.606343994140625
1520531126661515567, 0.031691616971942935, 0.010652644360316953, 0.062317969507854176, -1.059796142578125, -0.085023193359375, 10.627899169921875
1520531126666530567, 0.03675162304309349, 0.004527373853134706, 0.06657902725198096, -1.0346484375, -0.041912841796875, 10.58838134765625
1520531126671547567, 0.04154531300523612, -0.0010652644360316954, 0.07163903332313151, -1.038240966796875, -0.050295410156250005, 10.544073486328125
1520531126676562567, 0.050866376820513454, -0.004527373853134706, 0.07297061386817114, -1.0969189453125001, -0.056282958984375006, 10.5811962890625
1520531126681578567, 0.05832322787273532, -0.009054747706269411, 0.07749798772130584, -1.09931396484375, -0.05748046875, 10.570418701171876
1520531126686594567, 0.06604639503396512, -0.011984224905356573, 0.080427464920393, -1.0454260253906251, -0.05748046875, 10.508148193359375
1520531126691609567, 0.07510114274023452, -0.015446334322459582, 0.07909588437535338, -1.057401123046875, -0.0383203125, 10.50695068359375
1520531126696624567, 0.08282430990146432, -0.018908443739562592, 0.07536745884924245, -1.052611083984375, -0.015567626953125, 10.503358154296876
1520531126701640567, 0.0916127414987258, -0.019707392066586366, 0.07057376888709982, -1.047821044921875, 0.02155517578125, 10.526110839843751
1520531126706656567, 0.10093380531400313, -0.023169501483689375, 0.06524744670694134, -1.0370434570312501, 0.010777587890625, 10.526110839843751
1520531126711672567, 0.10998855302027255, -0.01997370817559429, 0.05938849230876701, -1.0011181640625, 0.00239501953125, 10.510543212890626
1520531126716686567, 0.11851066850852611, -0.014381069886427887, 0.05113269292952138, -1.0322534179687501, -0.01916015625, 10.51653076171875
1520531126721702567, 0.12330435847066874, -0.009054747706269411, 0.045540054640354974, -1.0585986328125, -0.028740234375, 10.510543212890626
1520531126726718567, 0.12916331286884306, -0.003994741635118857, 0.0402137324601965, -1.04662353515625, -0.058677978515625, 10.5141357421875
1520531126731734567, 0.13555489948503324, 0.0021305288720633907, 0.035153726389045944, -1.052611083984375, -0.082628173828125, 10.55724609375
1520531126736750567, 0.13901700890213625, 0.006391586616190172, 0.030360036426903318, -1.1005114746093752, -0.07424560546875, 10.584788818359376
1520531126741765567, 0.1430117505372551, 0.009054747706269411, 0.02689792700980031, -1.014290771484375, -0.130528564453125, 10.56443115234375
1520531126746780567, 0.14514227940931848, 0.007723167161229791, 0.026631610900792385, -1.011895751953125, -0.12693603515625002, 10.601553955078126
1520531126751797567, 0.14780544049939773, 0.004793689962142629, 0.026631610900792385, -1.0106982421875002, -0.10298583984375001, 10.55964111328125
1520531126756812567, 0.14780544049939773, 0.003728425526110934, 0.026631610900792385, -1.052611083984375, -0.094603271484375, 10.565628662109376
1520531126761828567, 0.1518001821345166, 0.003195793308095086, 0.02290318537468145, -1.0705737304687502, -0.044307861328125, 10.5428759765625
1520531126766842567, 0.1531317626795562, -0.0010652644360316954, 0.021038972611625982, -1.035845947265625, -0.0047900390625, 10.548863525390626
1520531126771859567, 0.15259913046154036, -0.004261057744126781, 0.01997370817559429, -0.987945556640625, 0.009580078125, 10.570418701171876
1520531126776875567, 0.15419702711558791, -0.006657902725198096, 0.0234358175926973, -0.966390380859375, -0.00718505859375, 10.61233154296875
1520531126781890567, 0.15499597544261168, -0.01384843766841204, 0.02556634646476069, -0.920885009765625, -0.01676513671875, 10.647059326171876
1520531126786906567, 0.1565938720966592, -0.01864212763055467, 0.029561088099879545, -0.928070068359375, -0.020357666015625, 10.714119873046876
1520531126791921567, 0.15765913653269092, -0.023702133701705222, 0.03142530086293501, -0.91729248046875, -0.013172607421875001, 10.7296875
1520531126796936567, 0.15952334929574638, -0.028762139772855775, 0.03648530693408557, -0.93166259765625, -0.07424560546875, 10.720107421875001
1520531126801953567, 0.15819176875070676, -0.03142530086293501, 0.03834951969714103, -0.959205322265625, -0.09580078125000001, 10.709329833984375
1520531126806969567, 0.15446334322459582, -0.03222424918995878, 0.03568635860706179, -0.96998291015625, -0.080233154296875, 10.70334228515625
1520531126811984567, 0.15366439489757205, -0.02982740420888747, 0.033555829734998405, -1.0071057128906251, -0.022752685546875002, 10.733280029296875
1520531126816998567, 0.1510012338074928, -0.027963191445832, 0.02716424311880823, -1.016685791015625, 0.0143701171875, 10.742860107421876
1520531126822015567, 0.14594122773634227, -0.0234358175926973, 0.022636869265673525, -1.01309326171875, 0.03592529296875, 10.79914306640625
1520531126827029567, 0.1408812216651917, -0.01864212763055467, 0.018908443739562592, -0.9723779296875, 0.023950195312500002, 10.86620361328125
1520531126832047567, 0.13369068672197776, -0.014913702104443736, 0.014381069886427887, -0.93166259765625, 0.047900390625000004, 10.90452392578125
1520531126837061567, 0.12490225512471628, -0.011984224905356573, 0.014913702104443736, -0.87897216796875, 0.06945556640625, 10.94044921875
1520531126842077567, 0.11238539800134385, -0.012516857123372421, 0.018109495412538822, -0.887354736328125, 0.086220703125, 10.981164550781251
1520531126847091567, 0.09853696033293181, -0.017843179303530896, 0.023169501483689375, -0.882564697265625, 0.130528564453125, 10.984757080078126
1520531126852109567, 0.08415589044650393, -0.021038972611625982, 0.02849582366384785, -0.865799560546875, 0.154478759765625, 11.049422607421876
1520531126857123567, 0.07057376888709982, -0.026631610900792385, 0.03488741028003802, -0.825084228515625, 0.1484912109375, 11.02427490234375
1520531126862140567, 0.05539375067364816, -0.03195793308095086, 0.039681100242180654, -0.827479248046875, 0.13412109375, 11.018287353515625
1520531126867155567, 0.03941478413317273, -0.034354778062022175, 0.04340952576829159, -0.8382568359375, 0.130528564453125, 11.020682373046876
1520531126872171567, 0.021305288720633905, -0.03675162304309349, 0.04633900296737875, -0.86939208984375, 0.128133544921875, 11.011102294921876
1520531126877187567, 0.007723167161229791, -0.03568635860706179, 0.04713795129440252, -0.9244775390625001, 0.077838134765625, 11.00990478515625
1520531126882202567, -0.010652644360316953, -0.034354778062022175, 0.04607268685837083, -0.93166259765625, 0.032332763671875, 11.027867431640626
1520531126887217567, -0.02716424311880823, -0.03142530086293501, 0.04287689355027574, -0.87418212890625, 0.0, 11.104508056640626
1520531126892233567, -0.04447479020432328, -0.03222424918995878, 0.043143209659283664, -0.805924072265625, -0.017962646484375, 11.1512109375
1520531126897248567, -0.0625842856168621, -0.034354778062022175, 0.043942157986307434, -0.7855664062500001, 0.023950195312500002, 11.207493896484376
1520531126902264567, -0.080427464920393, -0.03888215191515688, 0.044741106313331204, -0.825084228515625, 0.008382568359375, 11.188333740234375
1520531126907280567, -0.09800432811491597, -0.04074636467821235, 0.047404267403410444, -0.8705895996093751, -0.027542724609375003, 11.17276611328125
1520531126912295567, -0.11824435239951818, -0.04367584187729951, 0.047404267403410444, -0.9340576171875, -0.037122802734375, 11.124865722656251
1520531126917310567, -0.13688648003007287, -0.0468716351853946, 0.04500742242233913, -0.918489990234375, -0.045505371093750004, 11.05541015625
1520531126922327567, -0.1510012338074928, -0.04793689962142629, 0.04261057744126781, -0.910107421875, -0.04071533203125, 10.99553466796875
1520531126927343567, -0.16591493591193654, -0.04527373853134705, 0.04074636467821235, -0.9328601074218751, -0.11017089843750001, 10.950029296875
1520531126932359567, -0.17923074136233275, -0.03941478413317273, 0.0391484680241648, -0.9352551269531251, -0.128133544921875, 11.00990478515625
1520531126937374567, -0.19414444346677648, -0.03568635860706179, 0.03728425526110934, -0.918489990234375, -0.159268798828125, 10.999127197265626
1520531126942388567, -0.20506340393610137, -0.03328951362599048, 0.03648530693408557, -0.8705895996093751, -0.19160156250000002, 10.960806884765626
1520531126947404567, -0.21145499055229153, -0.03195793308095086, 0.0346210941710301, -0.8777746582031251, -0.20836669921875, 10.944041748046876
1520531126952420567, -0.220243422149553, -0.03222424918995878, 0.03408846195301425, -0.87418212890625, -0.17603393554687502, 10.929671630859376
1520531126957437567, -0.22716764098375902, -0.03195793308095086, 0.03595267471606972, -0.8562194824218751, -0.1580712890625, 10.8494384765625
1520531126962452567, -0.22956448596483034, -0.03328951362599048, 0.0391484680241648, -0.829874267578125, -0.13412109375, 10.807525634765625
1520531126967471567, -0.23249396316391752, -0.03408846195301425, 0.042077945223251964, -0.7939489746093751, -0.15567626953125, 10.838660888671875
1520531126972482567, -0.2322276470549096, -0.033555829734998405, 0.044741106313331204, -0.8131091308593751, -0.16645385742187502, 10.766810302734376
1520531126977498567, -0.22929816985582244, -0.03302319751698256, 0.04527373853134705, -0.8454418945312501, -0.18441650390625, 10.694959716796875
1520531126982513567, -0.22530342822070357, -0.02689792700980031, 0.043942157986307434, -0.8705895996093751, -0.202379150390625, 10.660231933593751
1520531126987529567, -0.21678131273245, -0.023702133701705222, 0.043942157986307434, -0.83107177734375, -0.22632934570312502, 10.6578369140625
1520531126992545567, -0.20746024891717266, -0.026631610900792385, 0.04154531300523612, -0.865799560546875, -0.21195922851562501, 10.661429443359376
1520531126997560567, -0.19840550121090325, -0.030360036426903318, 0.041278996896228194, -0.827479248046875, -0.22752685546875, 10.656639404296875
1520531127002576567, -0.1874865407415784, -0.034354778062022175, 0.04527373853134705, -0.8095166015625, -0.229921875, 10.5907763671875
1520531127007593567, -0.17363810307316635, -0.03675162304309349, 0.0468716351853946, -0.8286767578125, -0.2442919921875, 10.48300048828125
1520531127012608567, -0.15819176875070676, -0.037017939152101415, 0.045540054640354974, -0.7915539550781251, -0.30296997070312504, 10.469827880859375
1520531127017624567, -0.14034858944717588, -0.037816887479125184, 0.05060006071150553, -0.7664062500000001, -0.286204833984375, 10.414742431640626
1520531127022639567, -0.12543488734273212, -0.037816887479125184, 0.05539375067364816, -0.7939489746093751, -0.2442919921875, 10.360854492187501
1520531127027655567, -0.10759170803920123, -0.03941478413317273, 0.05645901510967986, -0.841849365234375, -0.239501953125, 10.3129541015625
1520531127032670567, -0.0905474770626941, -0.040480048569204424, 0.05779059565471947, -0.79754150390625, -0.21076171875000002, 10.233918457031251
1520531127037686567, -0.07110640110511567, -0.03888215191515688, 0.05912217619975909, -0.7747888183593751, -0.192799072265625, 10.175240478515626
1520531127042702567, -0.050067428493489684, -0.038615835806148954, 0.05965480841777494, -0.805924072265625, -0.18441650390625, 10.139315185546875
1520531127047716567, -0.02822950755483993, -0.037017939152101415, 0.0580569117637274, -0.825084228515625, -0.130528564453125, 10.159672851562501
1520531127052733567, -0.005326322180158476, -0.030093720317895395, 0.05672533121868778, -0.8430468750000001, -0.124541015625, 10.115364990234376
1520531127057747567, 0.017576863194522972, -0.023169501483689375, 0.0513990090385293, -0.85502197265625, -0.162861328125, 10.20038818359375
1520531127062763567, 0.03834951969714103, -0.01864212763055467, 0.044741106313331204, -0.8574169921875, -0.19160156250000002, 10.2650537109375
1520531127067779567, 0.05965480841777494, -0.013582121559404116, 0.03888215191515688, -0.85023193359375, -0.16046630859375, 10.368039550781251
1520531127072795567, 0.07616640717626622, -0.010120012142301106, 0.030360036426903318, -0.8478369140625001, -0.128133544921875, 10.338101806640626
1520531127077811567, 0.0972053797878922, -0.004261057744126781, 0.0234358175926973, -0.8095166015625, -0.124541015625, 10.321336669921875
1520531127082826567, 0.11345066243737556, 0.00026631610900792384, 0.017044230976507126, -0.76880126953125, -0.09580078125000001, 10.323731689453126
1520531127087841567, 0.12942962897785099, 0.0021305288720633907, 0.013049489341388268, -0.7807763671875, -0.07304809570312501, 10.294991455078126
1520531127092857567, 0.14168016999221547, 0.003195793308095086, 0.009054747706269411, -0.7855664062500001, -0.039517822265625, 10.2746337890625
1520531127097872567, 0.15419702711558791, 0.001331580545039619, 0.004793689962142629, -0.789158935546875, -0.045505371093750004, 10.233918457031251
1520531127102888567, 0.16112124594979393, -0.004527373853134706, 0.001331580545039619, -0.8190966796875, -0.032332763671875, 10.175240478515626
1520531127107905567, 0.17044230976507124, -0.008788431597261486, 0.0, -0.7939489746093751, -0.044307861328125, 10.170450439453125
1520531127112918567, 0.1776328447082852, -0.013582121559404116, -0.0005326322180158477, -0.8095166015625, -0.06346801757812501, 10.180030517578125
1520531127117934567, 0.18162758634340406, -0.01731054708551505, -0.001331580545039619, -0.781973876953125, -0.067060546875, 10.223140869140625
1520531127122951567, 0.18508969576050707, -0.017843179303530896, 0.0, -0.775986328125, -0.09580078125000001, 10.2171533203125
1520531127127967567, 0.18801917295959422, -0.01944107595757844, 0.0021305288720633907, -0.724493408203125, -0.09819580078125001, 10.227930908203126
1520531127132982567, 0.1866875924145546, -0.017843179303530896, 0.0055926382891664005, -0.7364685058593751, -0.082628173828125, 10.2650537109375
1520531127137998567, 0.1845570635424912, -0.017576863194522972, 0.010918960469324878, -0.7915539550781251, -0.11256591796875001, 10.304571533203125
1520531127143014567, 0.18162758634340406, -0.017576863194522972, 0.015180018213451659, -0.789158935546875, -0.116158447265625, 10.28900390625
1520531127148028567, 0.17923074136233275, -0.017843179303530896, 0.018908443739562592, -0.7903564453125, -0.125738525390625, 10.3225341796875
1520531127153044567, 0.17710021249026936, -0.018109495412538822, 0.023169501483689375, -0.741258544921875, -0.1197509765625, 10.278226318359376
1520531127158061567, 0.17337178696415842, -0.013049489341388268, 0.02982740420888747, -0.7771838378906251, -0.076640625, 10.302176513671876
1520531127163075567, 0.16671388423896033, -0.007456851052221868, 0.033555829734998405, -0.8382568359375, -0.076640625, 10.26984375
1520531127168091567, 0.157392820423683, -0.003195793308095086, 0.03142530086293501, -0.9005273437500001, -0.104183349609375, 10.34408935546875
1520531127173107567, 0.1483380727174136, -0.00026631610900792384, 0.02636529479178446, -0.8430468750000001, -0.142503662109375, 10.37282958984375
1520531127178122567, 0.13715279613908077, 0.0021305288720633907, 0.023169501483689375, -0.7747888183593751, -0.162861328125, 10.414742431640626
1520531127183138567, 0.12596751956074798, 0.0007989483270237715, 0.02290318537468145, -0.7472460937500001, -0.130528564453125, 10.484197998046875
1520531127188153567, 0.11371697854638348, 0.0005326322180158477, 0.023968449810713145, -0.7280859375000001, -0.09580078125000001, 10.465037841796876
1520531127193169567, 0.10253170196805068, 0.00346210941710301, 0.02476739813773692, -0.7747888183593751, -0.0814306640625, 10.5141357421875
1520531127198184567, 0.08868326429963864, 0.006657902725198096, 0.025300030355752765, -0.762813720703125, -0.101788330078125, 10.565628662109376
1520531127203200567, 0.07456851052221868, 0.007190534943213944, 0.028762139772855775, -0.7256909179687501, -0.164058837890625, 10.5907763671875
1520531127208217567, 0.06178533728983833, 0.009321063815277334, 0.031158984753927088, -0.726888427734375, -0.18082397460937502, 10.607541503906251
1520531127213231567, 0.04767058351241837, 0.011451592687340724, 0.03648530693408557, -0.738863525390625, -0.18441650390625, 10.600356445312501
1520531127218247567, 0.035153726389045944, 0.018109495412538822, 0.042077945223251964, -0.7616162109375001, -0.1484912109375, 10.647059326171876
1520531127223263567, 0.023702133701705222, 0.02476739813773692, 0.04607268685837083, -0.7520361328125, -0.14609619140625002, 10.625504150390626
1520531127228279567, 0.01038632825130903, 0.02769687533682408, 0.051665325147537224, -0.7556286621093751, -0.162861328125, 10.6195166015625
1520531127233294567, -0.001864212763055467, 0.0290284558818637, 0.05459480234662439, -0.7616162109375001, -0.162861328125, 10.667416992187501
1520531127238309567, -0.014381069886427887, 0.03302319751698256, 0.05725796343670363, -0.841849365234375, -0.23590942382812502, 10.751242675781251
1520531127243325567, -0.027430559227816155, 0.031691616971942935, 0.05273058958356892, -0.839454345703125, -0.324525146484375, 10.802735595703126
1520531127248340567, -0.041278996896228194, 0.03222424918995878, 0.05060006071150553, -0.6933581542968751, -0.154478759765625, 10.80872314453125
1520531127253356567, -0.05246427347456099, 0.03488741028003802, 0.05486111845563231, -0.7640112304687501, -0.101788330078125, 10.795550537109376
1520531127258372567, -0.06444849837991756, 0.0391484680241648, 0.0625842856168621, -0.7807763671875, -0.12693603515625002, 10.824290771484376
1520531127263387567, -0.06844324001503643, 0.04633900296737875, 0.0681769239060285, -0.8023315429687501, -0.09340576171875001, 10.797945556640625
1520531127268404567, -0.07776430383031376, 0.048203215730434214, 0.07084008499610774, -0.760418701171875, -0.085023193359375, 10.758427734375001
1520531127273419567, -0.07989483270237716, 0.05326322180158477, 0.07616640717626622, -0.77838134765625, -0.1293310546875, 10.7823779296875
1520531127278434567, -0.08202536157444054, 0.05113269292952138, 0.08016114881138507, -0.8262817382812501, -0.168848876953125, 10.794353027343751
1520531127283450567, -0.08575378710055148, 0.05033374460249761, 0.080427464920393, -0.8286767578125, -0.20597167968750002, 10.82788330078125
1520531127288466567, -0.08921589651765449, 0.04980111238448176, 0.08096009713840885, -0.85023193359375, -0.23590942382812502, 10.825488281250001
1520531127293481567, -0.08815063208162278, 0.04420847409531536, 0.08175904546543261, -0.81191162109375, -0.22273681640625, 10.7440576171875
1520531127298496567, -0.08628641931856733, 0.04713795129440252, 0.08468852266451977, -0.81191162109375, -0.26105712890625, 10.7536376953125
1520531127303512567, -0.07989483270237716, 0.043143209659283664, 0.08655273542757524, -0.7939489746093751, -0.276624755859375, 10.704539794921876
1520531127308528567, -0.07323692997717905, 0.039681100242180654, 0.0916127414987258, -0.8646020507812501, -0.27422973632812503, 10.675799560546876
1520531127313543567, -0.06711165946999681, 0.03648530693408557, 0.09241168982574957, -0.9268725585937501, -0.3065625, 10.635084228515625
1520531127318559567, -0.05938849230876701, 0.030093720317895395, 0.0905474770626941, -0.9304650878906251, -0.298179931640625, 10.568023681640625
1520531127323576567, -0.04793689962142629, 0.023702133701705222, 0.09214537371674165, -0.8765771484375, -0.24908203125, 10.59796142578125
1520531127328590567, -0.03675162304309349, 0.020240024284602212, 0.09560748313384466, -0.7915539550781251, -0.204774169921875, 10.486593017578125
1520531127333607567, -0.024501082028728992, 0.01997370817559429, 0.09747169589690012, -0.8286767578125, -0.142503662109375, 10.445877685546876
1520531127338621567, -0.009853696033293183, 0.019174759848570515, 0.09960222476896352, -0.8861572265625001, -0.08861572265625, 10.46384033203125
1520531127343637567, 0.006125270507182248, 0.015446334322459582, 0.09960222476896352, -0.89334228515625, -0.055085449218750006, 10.429112548828126
1520531127348652567, 0.01997370817559429, 0.011185276578332801, 0.09747169589690012, -0.8430468750000001, -0.061072998046875, 10.43031005859375
1520531127353669567, 0.03728425526110934, 0.007989483270237714, 0.09693906367888427, -0.846639404296875, -0.09101074218750001, 10.350076904296875
1520531127358684567, 0.05219795736555307, 0.00692421883420602, 0.09454221869781296, -0.8622070312500001, -0.113763427734375, 10.33450927734375
1520531127363699567, 0.06631271114297303, 0.004527373853134706, 0.08974852873567034, -0.9160949707031251, -0.147293701171875, 10.32013916015625
1520531127368715567, 0.08415589044650393, -0.0005326322180158477, 0.08708536764559109, -0.948427734375, -0.14130615234375002, 10.26984375
1520531127373731567, 0.09640643146086843, -0.008522115488253563, 0.08122641324741676, -0.968785400390625, -0.140108642578125, 10.160870361328126
1520531127378746567, 0.11078750134729631, -0.013315805450396193, 0.07696535550328999, -0.9723779296875, -0.132923583984375, 10.09021728515625
1520531127383761567, 0.12223909403463704, -0.01464738599543581, 0.07057376888709982, -1.0071057128906251, -0.06586303710937501, 10.05189697265625
1520531127388776567, 0.13022857730487475, -0.014913702104443736, 0.06657902725198096, -1.014290771484375, -0.07424560546875, 10.041119384765626
1520531127393794567, 0.1384843766841204, -0.013049489341388268, 0.061519021180830406, -1.004710693359375, -0.03592529296875, 10.038724365234376
1520531127398808567, 0.15020228548046904, -0.010120012142301106, 0.0569916473276957, -1.057401123046875, -0.050295410156250005, 10.065069580078125
1520531127403825567, 0.15792545264169883, -0.002663161090079238, 0.05060006071150553, -1.090931396484375, -0.052690429687500005, 10.0255517578125
1520531127408840567, 0.16484967147590485, 0.0021305288720633907, 0.044741106313331204, -1.0873388671875, -0.051492919921875005, 9.990823974609375
1520531127413855567, 0.17177389031011087, 0.002663161090079238, 0.035153726389045944, -1.141226806640625, -0.11256591796875001, 10.031539306640626
1520531127418871567, 0.1773665285992773, 0.0, 0.02423476591972107, -1.12805419921875, -0.1389111328125, 10.030341796875
1520531127423887567, 0.18349179910645952, -0.007456851052221868, 0.014114753777419964, -1.0777587890625, -0.130528564453125, 9.947713623046875
1520531127428903567, 0.18801917295959422, -0.014913702104443736, 0.00692421883420602, -0.968785400390625, -0.135318603515625, 9.98244140625
1520531127433919567, 0.1920139145947131, -0.021571604829641832, 0.006391586616190172, -0.961600341796875, -0.06466552734375, 9.940528564453125
1520531127438933567, 0.1965412884478478, -0.02476739813773692, 0.003195793308095086, -1.004710693359375, -0.0059875488281250005, 9.883048095703126
1520531127443949567, 0.1989381334289191, -0.022370553156665602, -0.0021305288720633907, -1.044228515625, -0.0059875488281250005, 9.807604980468751
1520531127448965567, 0.20053603008296664, -0.019707392066586366, -0.001597896654047543, -0.9915380859375, -0.013172607421875001, 9.860295410156251
1520531127453981567, 0.20399813950006965, -0.017843179303530896, 0.0023968449810713144, -0.983155517578125, 0.029937744140625, 9.89861572265625
1520531127458996567, 0.20799288113518852, -0.02077265650261806, 0.004527373853134706, -0.97477294921875, 0.0335302734375, 9.914183349609376
1520531127464011567, 0.2122539388793153, -0.02822950755483993, 0.007190534943213944, -1.0238708496093751, 0.0622705078125, 9.945318603515625
1520531127469027567, 0.21624868051443416, -0.034354778062022175, 0.009853696033293183, -1.00830322265625, 0.07544311523437501, 9.889035644531251
1520531127474043567, 0.2165149966234421, -0.0391484680241648, 0.013582121559404116, -0.9340576171875, 0.0814306640625, 9.934541015625001
1520531127479058567, 0.21624868051443416, -0.043942157986307434, 0.019707392066586366, -0.871787109375, 0.1389111328125, 9.956096191406251
1520531127484074567, 0.2191781577135213, -0.05273058958356892, 0.022636869265673525, -0.8969348144531251, 0.15567626953125, 9.995614013671876
1520531127489091567, 0.2157160482964183, -0.06045375674479871, 0.027963191445832, -0.9268725585937501, 0.18082397460937502, 10.0063916015625
1520531127494105567, 0.21065604222526776, -0.0681769239060285, 0.03142530086293501, -0.904119873046875, 0.17603393554687502, 10.06626708984375
1520531127499121567, 0.20932446168022814, -0.07723167161229791, 0.0346210941710301, -0.889749755859375, 0.15088623046875002, 10.074649658203125
1520531127504136567, 0.20639498448114096, -0.08548747099154355, 0.03568635860706179, -0.8753796386718751, 0.13651611328125002, 10.047106933593751
1520531127509152567, 0.20506340393610137, -0.08948221262666241, 0.03675162304309349, -0.91250244140625, 0.087418212890625, 10.103389892578125
1520531127514166567, 0.20293287506403795, -0.09454221869781296, 0.03648530693408557, -0.88855224609375, 0.101788330078125, 10.084229736328126
1520531127519183567, 0.20240024284602212, -0.09347695426178126, 0.04074636467821235, -0.8346643066406251, 0.09819580078125001, 10.084229736328126
1520531127524199567, 0.1989381334289191, -0.0950748509158288, 0.04367584187729951, -0.781973876953125, 0.12693603515625002, 10.13332763671875
1520531127529214567, 0.19520970790280817, -0.0972053797878922, 0.04873584794845006, -0.7915539550781251, 0.15687377929687502, 10.1117724609375
1520531127534230567, 0.1989381334289191, -0.0937432703707892, 0.0513990090385293, -0.7232958984375001, 0.16525634765625, 10.100994873046876
1520531127539246567, 0.19680760455685573, -0.08974852873567034, 0.05406217012860854, -0.6957531738281251, 0.21076171875000002, 10.110574951171875
1520531127544262567, 0.19387812735776855, -0.08655273542757524, 0.05645901510967986, -0.6873706054687501, 0.23710693359375, 10.141710205078125
1520531127549276567, 0.19148128237669723, -0.08202536157444054, 0.0569916473276957, -0.69216064453125, 0.19040405273437502, 10.13332763671875
1520531127554293567, 0.18908443739562592, -0.07456851052221868, 0.05832322787273532, -0.71611083984375, 0.147293701171875, 10.203980712890626
1520531127559307567, 0.1874865407415784, -0.06870955612404435, 0.05672533121868778, -0.700543212890625, 0.101788330078125, 10.2746337890625
1520531127564323567, 0.18349179910645952, -0.06125270507182248, 0.05246427347456099, -0.6370751953125, 0.09819580078125001, 10.32732421875
1520531127569339567, 0.17923074136233275, -0.05379585401960062, 0.04953479627547384, -0.57719970703125, 0.080233154296875, 10.347681884765626
1520531127574355567, 0.17283915474614256, -0.048203215730434214, 0.04767058351241837, -0.5652246093750001, 0.028740234375, 10.3416943359375
1520531127579370567, 0.16245282649483353, -0.0402137324601965, 0.04607268685837083, -0.51492919921875, 0.02155517578125, 10.338101806640626
1520531127584386567, 0.15579492376963544, -0.026631610900792385, 0.04420847409531536, -0.566422119140625, -0.001197509765625, 10.3416943359375
1520531127589402567, 0.14514227940931848, -0.011984224905356573, 0.0391484680241648, -0.5987548828125, -0.01916015625, 10.360854492187501
1520531127594418567, 0.13369068672197776, -0.0005326322180158477, 0.034354778062022175, -0.566422119140625, -0.025147705078125002, 10.356064453125
1520531127599434567, 0.12756541621479553, 0.009853696033293183, 0.0290284558818637, -0.5568420410156251, -0.047900390625000004, 10.350076904296875
1520531127604449567, 0.11744540407249442, 0.0234358175926973, 0.01997370817559429, -0.5736071777343751, -0.053887939453125006, 10.369237060546876
1520531127609464567, 0.10333065029507445, 0.03888215191515688, 0.011984224905356573, -0.5568420410156251, -0.020357666015625, 10.381212158203125
1520531127614479567, 0.09214537371674165, 0.05193164125654515, 0.0023968449810713144, -0.5245092773437501, 0.0622705078125, 10.431507568359375
1520531127619496567, 0.080427464920393, 0.05645901510967986, 0.001597896654047543, -0.49097900390625004, 0.144898681640625, 10.547666015625001
1520531127624511567, 0.06844324001503643, 0.050067428493489684, 0.002663161090079238, -0.417930908203125, 0.16525634765625, 10.62670166015625
1520531127629527567, 0.05938849230876701, 0.04101268078722027, 0.005060006071150553, -0.39996826171875, 0.17962646484375, 10.660231933593751
1520531127634543567, 0.051665325147537224, 0.03675162304309349, 0.01038632825130903, -0.33290771484375004, 0.21076171875000002, 10.656639404296875
1520531127639558567, 0.04767058351241837, 0.03222424918995878, 0.018375811521546746, -0.31853759765625, 0.27303222656250004, 10.544073486328125
1520531127644572567, 0.049002164057457984, 0.03249056529896671, 0.02689792700980031, -0.4454736328125, 0.28979736328125, 10.532098388671876
1520531127649589567, 0.05060006071150553, 0.039681100242180654, 0.02849582366384785, -0.5269042968750001, 0.286204833984375, 10.508148193359375
1520531127654605567, 0.05379585401960062, 0.04953479627547384, 0.03062635253591124, -0.5352868652343751, 0.258662109375, 10.451865234375001
1520531127659620567, 0.06045375674479871, 0.061519021180830406, 0.030360036426903318, -0.542471923828125, 0.28021728515625, 10.391989746093751
1520531127664635567, 0.07137271721412358, 0.07297061386817114, 0.02769687533682408, -0.5412744140625, 0.29937744140625, 10.350076904296875
1520531127669651567, 0.080427464920393, 0.08362325822848808, 0.02556634646476069, -0.6167175292968751, 0.29219238281250004, 10.332114257812501
1520531127674666567, 0.09480853480682089, 0.08974852873567034, 0.020506340393610135, -0.6274951171875001, 0.26225463867187504, 10.32013916015625
1520531127679682567, 0.10865697247523293, 0.09587379924285258, 0.014114753777419964, -0.542471923828125, 0.258662109375, 10.298583984375
1520531127684697567, 0.12490225512471628, 0.10253170196805068, 0.011185276578332801, -0.5029541015625, 0.24069946289062502, 10.278226318359376
1520531127689713567, 0.13875069279312832, 0.10626012749416161, 0.01171790879634865, -0.5077441406250001, 0.21076171875000002, 10.302176513671876
1520531127694728567, 0.14887070493542942, 0.108390656366225, 0.009321063815277334, -0.5376818847656251, 0.192799072265625, 10.4087548828125
1520531127699745567, 0.15765913653269092, 0.108390656366225, 0.009587379924285258, -0.53408935546875, 0.192799072265625, 10.424322509765625
1520531127704761567, 0.16671388423896033, 0.1094559208022567, 0.010120012142301106, -0.49097900390625004, 0.183218994140625, 10.41593994140625
1520531127709776567, 0.17283915474614256, 0.11078750134729631, 0.013582121559404116, -0.5161267089843751, 0.23590942382812502, 10.457852783203126
1520531127714791567, 0.181893902452412, 0.11531487520043102, 0.015180018213451659, -0.56282958984375, 0.255069580078125, 10.469827880859375
1520531127719807567, 0.18722022463257046, 0.11904330072654196, 0.017044230976507126, -0.61072998046875, 0.25267456054687504, 10.487790527343751
1520531127724823567, 0.19148128237669723, 0.12010856516257365, 0.019174759848570515, -0.67300048828125, 0.22153930664062502, 10.472222900390625
1520531127729839567, 0.19174759848570516, 0.12037488127158158, 0.02476739813773692, -0.6933581542968751, 0.204774169921875, 10.5380859375
1520531127734855567, 0.19467707568479234, 0.1241033067976925, 0.02556634646476069, -0.729283447265625, 0.19399658203125, 10.500963134765625
1520531127739869567, 0.19068233404967347, 0.12436962290670044, 0.026631610900792385, -0.77838134765625, 0.168848876953125, 10.491383056640625
1520531127744885567, 0.18508969576050707, 0.12197277792562912, 0.026631610900792385, -0.861009521484375, 0.140108642578125, 10.49737060546875
1520531127749902567, 0.18029600579836444, 0.11930961683554989, 0.025300030355752765, -0.868194580078125, 0.10298583984375001, 10.534493408203126
1520531127754917567, 0.1720402064191188, 0.11797803629051026, 0.02210423704765768, -0.858614501953125, 0.11017089843750001, 10.512938232421876
1520531127759932567, 0.1600559815137622, 0.11984224905356573, 0.021837920938649755, -0.7747888183593751, 0.15088623046875002, 10.526110839843751
1520531127764947567, 0.14674017606336603, 0.12144014570761327, 0.02423476591972107, -0.688568115234375, 0.21555175781250002, 10.544073486328125
1520531127769963567, 0.13608753170304907, 0.12197277792562912, 0.02556634646476069, -0.700543212890625, 0.3065625, 10.553653564453125
1520531127774979567, 0.12357067457967666, 0.11771172018150233, 0.02556634646476069, -0.760418701171875, 0.3113525390625, 10.584788818359376
1520531127779994567, 0.108390656366225, 0.11211908189233594, 0.025033714246744842, -0.74964111328125, 0.276624755859375, 10.603948974609375
1520531127785010567, 0.09534116702483673, 0.10865697247523293, 0.025300030355752765, -0.743653564453125, 0.28021728515625, 10.608739013671876
1520531127790025567, 0.08282430990146432, 0.1059938113851537, 0.025832662573768612, -0.75922119140625, 0.28740234375, 10.571616210937501
1520531127795040567, 0.07030745277809189, 0.10466223084011407, 0.028762139772855775, -0.7723937988281251, 0.277822265625, 10.55724609375
1520531127800057567, 0.058855860090751166, 0.1038632825130903, 0.03062635253591124, -0.786763916015625, 0.295784912109375, 10.572813720703126
1520531127805073567, 0.04873584794845006, 0.10626012749416161, 0.03328951362599048, -0.8131091308593751, 0.33410522460937503, 10.591973876953126
1520531127810088567, 0.03808320358813311, 0.11025486912928047, 0.03728425526110934, -0.805924072265625, 0.39517822265625, 10.596763916015625
1520531127815103567, 0.02982740420888747, 0.11424961076439932, 0.04234426133225989, -0.8430468750000001, 0.4454736328125, 10.611134033203125
1520531127820120567, 0.02210423704765768, 0.11424961076439932, 0.04767058351241837, -0.8705895996093751, 0.47062133789062505, 10.630294189453126
1520531127825136567, 0.01384843766841204, 0.11424961076439932, 0.05299690569257685, -0.884959716796875, 0.43828857421875, 10.659034423828125
1520531127830151567, 0.006657902725198096, 0.11345066243737556, 0.05645901510967986, -0.9268725585937501, 0.44188110351562504, 10.6099365234375
1520531127835166567, -0.001864212763055467, 0.11025486912928047, 0.05858954398174324, -0.948427734375, 0.42032592773437505, 10.599158935546875
1520531127840182567, -0.007456851052221868, 0.10918960469324877, 0.0625842856168621, -0.910107421875, 0.4263134765625, 10.599158935546875
1520531127845196567, -0.012783173232380344, 0.10652644360316954, 0.06338323394388587, -0.93884765625, 0.408350830078125, 10.60275146484375
1520531127850214567, -0.014913702104443736, 0.10519486305812992, 0.06657902725198096, -0.8813671875000001, 0.37362304687500003, 10.596763916015625
1520531127855230567, -0.018109495412538822, 0.10306433418606653, 0.06791060779702057, -0.83586181640625, 0.37122802734375004, 10.560838623046875
1520531127860245567, -0.0234358175926973, 0.10066748920499521, 0.06950850445106813, -0.8178991699218751, 0.3496728515625, 10.606343994140625
1520531127865259567, -0.023702133701705222, 0.09587379924285258, 0.0692421883420602, -0.827479248046875, 0.319735107421875, 10.562036132812501
1520531127870276567, -0.02290318537468145, 0.08948221262666241, 0.07084008499610774, -0.83586181640625, 0.288599853515625, 10.554851074218751
1520531127875292567, -0.022370553156665602, 0.08282430990146432, 0.06897587223305228, -0.882564697265625, 0.314945068359375, 10.571616210937501
1520531127880307567, -0.021305288720633905, 0.07616640717626622, 0.06684534336098888, -0.827479248046875, 0.29338989257812503, 10.558443603515625
1520531127885322567, -0.017044230976507126, 0.06977482056007604, 0.06977482056007604, -0.814306640625, 0.26225463867187504, 10.570418701171876
1520531127890338567, -0.010652644360316953, 0.05992112452678287, 0.07163903332313151, -0.7963439941406251, 0.27303222656250004, 10.596763916015625
1520531127895353567, -0.002663161090079238, 0.055926382891664, 0.0759000910672583, -0.810714111328125, 0.279019775390625, 10.613529052734375
1520531127900369567, 0.003195793308095086, 0.04793689962142629, 0.07669903939428206, -0.8286767578125, 0.29219238281250004, 10.632689208984376
1520531127905384567, 0.007989483270237714, 0.0402137324601965, 0.080427464920393, -0.89334228515625, 0.31255004882812504, 10.700947265625
1520531127910400567, 0.015180018213451659, 0.033555829734998405, 0.08255799379245639, -0.8837622070312501, 0.3065625, 10.7248974609375
1520531127915415567, 0.021571604829641832, 0.02689792700980031, 0.08362325822848808, -0.884959716796875, 0.326920166015625, 10.741662597656251
1520531127920432567, 0.02769687533682408, 0.021038972611625982, 0.0849548387735277, -0.822689208984375, 0.33290771484375004, 10.759625244140626
1520531127925446567, 0.03382214584400633, 0.014913702104443736, 0.08841694819063071, -0.827479248046875, 0.316142578125, 10.790760498046875
1520531127930463567, 0.03888215191515688, 0.007723167161229791, 0.09214537371674165, -0.76880126953125, 0.32811767578125, 10.84225341796875
1520531127935479567, 0.045540054640354974, 0.0010652644360316954, 0.09534116702483673, -0.81191162109375, 0.36164794921875004, 10.847043457031251
1520531127940494567, 0.050067428493489684, -0.007456851052221868, 0.09880327644193974, -0.8238867187500001, 0.39278320312500004, 10.911708984375
1520531127945508567, 0.05299690569257685, -0.013315805450396193, 0.09933590865995559, -0.741258544921875, 0.3592529296875, 10.95721435546875
1520531127950526567, 0.05273058958356892, -0.017843179303530896, 0.09853696033293181, -0.756826171875, 0.36643798828125, 11.005114746093751
1520531127955541567, 0.056192699000671927, -0.020240024284602212, 0.09986854087797144, -0.743653564453125, 0.367635498046875, 11.023077392578125
1520531127960556567, 0.0569916473276957, -0.02636529479178446, 0.09986854087797144, -0.77359130859375, 0.34727783203125, 11.006312255859376
1520531127965571567, 0.05779059565471947, -0.028762139772855775, 0.09667274756987636, -0.822689208984375, 0.28380981445312503, 11.018287353515625
1520531127970587567, 0.055926382891664, -0.02849582366384785, 0.09134642538971788, -0.827479248046875, 0.255069580078125, 10.997929687500001
1520531127975603567, 0.053529537910592694, -0.02982740420888747, 0.08122641324741676, -0.8729846191406251, 0.21674926757812502, 11.007509765625
1520531127980619567, 0.04980111238448176, -0.02769687533682408, 0.07323692997717905, -0.863404541015625, 0.18561401367187502, 11.039842529296875
1520531127985635567, 0.04607268685837083, -0.023702133701705222, 0.0636495500528938, -0.8514294433593751, 0.154478759765625, 11.00032470703125
1520531127990649567, 0.03755057137011726, -0.016777914867499202, 0.05432848623761646, -0.81670166015625, 0.13651611328125002, 10.977572021484375
1520531127995665567, 0.030892668644919165, -0.009321063815277334, 0.046605319076386674, -0.798739013671875, 0.142503662109375, 11.037447509765625
1520531128000681567, 0.025033714246744842, -0.003728425526110934, 0.040480048569204424, -0.8131091308593751, 0.16166381835937502, 10.965596923828125
1520531128005697567, 0.01731054708551505, -0.001597896654047543, 0.03648530693408557, -0.798739013671875, 0.17124389648437502, 10.9643994140625
1520531128010713567, 0.010652644360316953, 0.001864212763055467, 0.03142530086293501, -0.76880126953125, 0.14130615234375002, 10.967991943359376
1520531128015727567, 0.00346210941710301, 0.005858954398174325, 0.027430559227816155, -0.7616162109375001, 0.1197509765625, 10.994337158203125
1520531128020744567, -0.001597896654047543, 0.011984224905356573, 0.025033714246744842, -0.762813720703125, 0.082628173828125, 10.97637451171875
1520531128025760567, -0.008522115488253563, 0.021038972611625982, 0.023169501483689375, -0.7879614257812501, 0.046702880859375004, 10.996732177734376
1520531128030775567, -0.017044230976507126, 0.03062635253591124, 0.023169501483689375, -0.786763916015625, 0.089813232421875, 10.987152099609375
1520531128035791567, -0.023169501483689375, 0.04181162911424404, 0.021038972611625982, -0.7065307617187501, 0.130528564453125, 10.966794433593751
1520531128040806567, -0.031158984753927088, 0.05033374460249761, 0.017044230976507126, -0.7173083496093751, 0.18082397460937502, 10.982362060546876
1520531128045821567, -0.04154531300523612, 0.05938849230876701, 0.016777914867499202, -0.683778076171875, 0.223934326171875, 11.013497314453126
1520531128050837567, -0.050067428493489684, 0.06657902725198096, 0.01597896654047543, -0.640667724609375, 0.250279541015625, 11.059002685546876
1520531128055853567, -0.0569916473276957, 0.06604639503396512, 0.013582121559404116, -0.590372314453125, 0.22153930664062502, 11.056607666015626
1520531128060869567, -0.06631271114297303, 0.06844324001503643, 0.017044230976507126, -0.566422119140625, 0.22153930664062502, 11.092532958984375
1520531128065883567, -0.07643272328527415, 0.07030745277809189, 0.017576863194522972, -0.63468017578125, 0.20597167968750002, 11.171568603515626
1520531128070900567, -0.08735168375459902, 0.06604639503396512, 0.017044230976507126, -0.702938232421875, 0.17962646484375, 11.18234619140625
1520531128075915567, -0.10040117309598728, 0.06471481448892549, 0.01864212763055467, -0.70174072265625, 0.21076171875000002, 11.2039013671875
1520531128080931567, -0.11424961076439932, 0.0681769239060285, 0.018109495412538822, -0.7448510742187501, 0.21315673828125, 11.185938720703126
1520531128085946567, -0.12703278399677967, 0.07616640717626622, 0.017576863194522972, -0.7711962890625, 0.20597167968750002, 11.181148681640625
1520531128090962567, -0.13821806057511246, 0.08335694211948017, 0.017843179303530896, -0.737666015625, 0.19639160156250002, 11.176358642578126
1520531128095977567, -0.15046860158947697, 0.08815063208162278, 0.020240024284602212, -0.7472460937500001, 0.20118164062500002, 11.14402587890625
1520531128100992567, -0.16378440703987315, 0.08815063208162278, 0.021305288720633905, -0.643062744140625, 0.271834716796875, 11.17276611328125
1520531128106008567, -0.17710021249026936, 0.08894958040864656, 0.027430559227816155, -0.6274951171875001, 0.27542724609375, 11.206296386718751
1520531128111024567, -0.18908443739562592, 0.08628641931856733, 0.03568635860706179, -0.63228515625, 0.22632934570312502, 11.217073974609375
1520531128116039567, -0.19973708175594287, 0.07962851659336923, 0.04074636467821235, -0.6382727050781251, 0.247884521484375, 11.179951171875
1520531128121056567, -0.2101234100072519, 0.07323692997717905, 0.04340952576829159, -0.69695068359375, 0.20836669921875, 11.13444580078125
1520531128126070567, -0.2210423704765768, 0.06711165946999681, 0.04607268685837083, -0.707728271484375, 0.18202148437500001, 11.09612548828125
1520531128131087567, -0.22849922152879865, 0.06471481448892549, 0.04926848016646591, -0.6957531738281251, 0.149688720703125, 11.135643310546875
1520531128136101567, -0.23755396923506805, 0.06498113059793342, 0.04980111238448176, -0.6825805664062501, 0.087418212890625, 11.138038330078125
1520531128141118567, -0.24607608472332163, 0.0681769239060285, 0.05060006071150553, -0.7125183105468751, 0.037122802734375, 11.097322998046875
1520531128146133567, -0.2567287290836386, 0.07350324608618698, 0.050067428493489684, -0.7137158203125, -0.02155517578125, 11.0697802734375
1520531128151150567, -0.26498452846288423, 0.07643272328527415, 0.048203215730434214, -0.680185546875, -0.0335302734375, 11.042237548828126
1520531128156164567, -0.27190874729709025, 0.08069378102940092, 0.04846953183944214, -0.689765625, -0.02155517578125, 11.057805175781251
1520531128161181567, -0.2783003339132804, 0.0849548387735277, 0.04846953183944214, -0.6753955078125, -0.029937744140625, 11.032657470703125
1520531128166195567, -0.28628981718351815, 0.08655273542757524, 0.05299690569257685, -0.6634204101562501, -0.01676513671875, 11.05301513671875
1520531128171212567, -0.29321403601772417, 0.08681905153658317, 0.0569916473276957, -0.662222900390625, -0.04071533203125, 11.097322998046875
1520531128176227567, -0.3004045709609381, 0.08788431597261487, 0.06098638896281456, -0.6933581542968751, -0.044307861328125, 11.085347900390625
1520531128181243567, -0.30786142201315997, 0.08974852873567034, 0.06391586616190172, -0.6873706054687501, -0.050295410156250005, 11.117680664062501
1520531128186259567, -0.31238879586629464, 0.09454221869781296, 0.06604639503396512, -0.5975573730468751, -0.08382568359375, 11.084150390625
1520531128191274567, -0.31744880193744524, 0.09534116702483673, 0.06737797557900473, -0.559237060546875, -0.034727783203125, 11.061397705078125
1520531128196289567, -0.3206445952455403, 0.0937432703707892, 0.06844324001503643, -0.5508544921875, -0.00239501953125, 11.033854980468751
1520531128201306567, -0.32490565298966706, 0.09081379317170203, 0.07030745277809189, -0.4981640625, 0.0, 10.970386962890625
1520531128206321567, -0.32890039462478593, 0.08548747099154355, 0.07030745277809189, -0.477806396484375, -0.00718505859375, 10.967991943359376
1520531128211336567, -0.32890039462478593, 0.08282430990146432, 0.07217166554114736, -0.511336669921875, -0.01916015625, 10.94763427734375
1520531128216350567, -0.3291667107337939, 0.07856325215733753, 0.07190534943213944, -0.513731689453125, -0.032332763671875, 10.857821044921875
1520531128221368567, -0.325171969098675, 0.07616640717626622, 0.07084008499610774, -0.51732421875, -0.08861572265625, 10.857821044921875
1520531128226383567, -0.321709859681572, 0.07297061386817114, 0.07190534943213944, -0.5029541015625, -0.06945556640625, 10.833870849609376
1520531128231399567, -0.31771511804645314, 0.07137271721412358, 0.07057376888709982, -0.51492919921875, -0.051492919921875005, 10.711724853515626
1520531128236414567, -0.3091930025581996, 0.06791060779702057, 0.07137271721412358, -0.5269042968750001, -0.032332763671875, 10.699749755859376
1520531128241430567, -0.30120351928796185, 0.06391586616190172, 0.07110640110511567, -0.547261962890625, -0.02155517578125, 10.678194580078125
1520531128246445567, -0.2908171910366528, 0.05965480841777494, 0.0727042977591632, -0.58198974609375, -0.051492919921875005, 10.624306640625
1520531128251461567, -0.2785666500222883, 0.05725796343670363, 0.07190534943213944, -0.5316943359375, -0.07304809570312501, 10.55006103515625
1520531128256477567, -0.2689792700980031, 0.055926382891664, 0.0727042977591632, -0.599952392578125, -0.113763427734375, 10.498568115234375
1520531128261492567, -0.2599245223917337, 0.055926382891664, 0.07456851052221868, -0.622705078125, -0.144898681640625, 10.481802978515626
1520531128266511567, -0.24607608472332163, 0.05566006678265608, 0.07323692997717905, -0.6658154296875001, -0.17244140625, 10.474617919921876
1520531128271524567, -0.23409185981796504, 0.05912217619975909, 0.07084008499610774, -0.65863037109375, -0.23111938476562502, 10.393187255859376
1520531128276539567, -0.2210423704765768, 0.06444849837991756, 0.06791060779702057, -0.6933581542968751, -0.27422973632812503, 10.399174804687501
1520531128281555567, -0.20852551335320438, 0.06631271114297303, 0.06498113059793342, -0.669407958984375, -0.271834716796875, 10.383607177734376
1520531128286570567, -0.19627497233883986, 0.06604639503396512, 0.05992112452678287, -0.6634204101562501, -0.26225463867187504, 10.31055908203125
1520531128291586567, -0.1856223279785229, 0.06444849837991756, 0.06098638896281456, -0.661025390625, -0.24668701171875002, 10.247091064453125
1520531128296600567, -0.17070862587407917, 0.0625842856168621, 0.05752427954571155, -0.652642822265625, -0.24189697265625001, 10.189610595703126
1520531128301617567, -0.15686018820566713, 0.05912217619975909, 0.05432848623761646, -0.643062744140625, -0.22153930664062502, 10.127340087890625
1520531128306633567, -0.1440770149732868, 0.05512743456464023, 0.05459480234662439, -0.628692626953125, -0.188009033203125, 10.112969970703125
1520531128311648567, -0.13209279006793023, 0.05033374460249761, 0.055926382891664, -0.619112548828125, -0.16645385742187502, 10.10458740234375
1520531128316663567, -0.11744540407249442, 0.04447479020432328, 0.05912217619975909, -0.59635986328125, -0.17244140625, 10.10458740234375
1520531128321679567, -0.10439591473110614, 0.03994741635118858, 0.06285060172587002, -0.585582275390625, -0.149688720703125, 10.128537597656251
1520531128326696567, -0.09134642538971788, 0.03408846195301425, 0.0692421883420602, -0.5161267089843751, -0.144898681640625, 10.124945068359375
1520531128331711567, -0.07723167161229791, 0.026098978682776535, 0.07430219441321075, -0.5604345703125, -0.140108642578125, 10.09740234375
1520531128336727567, -0.06604639503396512, 0.01997370817559429, 0.07776430383031376, -0.547261962890625, -0.183218994140625, 10.093809814453126
1520531128341742567, -0.05246427347456099, 0.017576863194522972, 0.08735168375459902, -0.592767333984375, -0.199984130859375, 10.012379150390625
1520531128346756567, -0.039681100242180654, 0.01384843766841204, 0.09454221869781296, -0.613125, -0.164058837890625, 9.972861328125001
