# timestamp, wx, wy, wz, ax, ay, az
1.691119217562564352e+18,-1.218026796589524903e-03,1.705237515225335038e-02,3.654080389768574882e-02,3.065717760000000180e-01,-3.065717760000000180e-01,9.657010944000001373e+00
1.691119217572564480e+18,9.744214372716199224e-03,4.872107186358099612e-03,2.436053593179049806e-02,3.065717760000000180e-01,-1.532858880000000090e-01,9.657010944000001373e+00
1.691119217582564352e+18,-1.218026796589524903e-03,1.339829476248477480e-02,2.314250913520097402e-02,1.532858880000000090e-01,-1.532858880000000090e-01,9.503725056000000393e+00
1.691119217592564224e+18,3.654080389768574709e-03,1.096224116930572499e-02,3.166869671132764574e-02,3.065717760000000180e-01,-3.065717760000000180e-01,9.350439168000001189e+00
1.691119217602564352e+18,2.436053593179049806e-03,7.308160779537149418e-03,3.045066991473812518e-02,3.065717760000000180e-01,-1.532858880000000090e-01,9.503725056000000393e+00
1.691119217612564224e+18,1.218026796589524903e-03,6.090133982947624515e-03,3.410475030450670075e-02,3.065717760000000180e-01,-3.065717760000000180e-01,9.503725056000000393e+00
1.691119217622564352e+18,-1.218026796589524903e-02,4.872107186358099612e-03,3.654080389768574882e-02,0.000000000000000000e+00,-1.532858880000000090e-01,9.657010944000001373e+00
1.691119217632564224e+18,2.436053593179049806e-03,4.872107186358099612e-03,2.801461632155907364e-02,0.000000000000000000e+00,-1.532858880000000090e-01,9.503725056000000393e+00
1.691119217642564352e+18,1.096224116930572499e-02,1.705237515225335038e-02,2.801461632155907364e-02,1.532858880000000090e-01,-3.065717760000000180e-01,9.657010944000001373e+00
1.691119217652564224e+18,8.526187576126675188e-03,1.218026796589524903e-02,3.288672350791717325e-02,0.000000000000000000e+00,-1.532858880000000090e-01,9.503725056000000393e+00
1.691119217662564352e+18,0.000000000000000000e+00,1.339829476248477480e-02,3.654080389768574882e-02,1.532858880000000090e-01,-1.532858880000000090e-01,9.503725056000000393e+00
1.691119217672564224e+18,-4.872107186358099612e-03,1.583434835566382287e-02,3.654080389768574882e-02,3.065717760000000180e-01,-3.065717760000000180e-01,9.657010944000001373e+00
1.691119217682564352e+18,-1.218026796589524903e-03,9.744214372716199224e-03,3.288672350791717325e-02,1.532858880000000090e-01,-3.065717760000000180e-01,9.503725056000000393e+00
1.691119217692564480e+18,0.000000000000000000e+00,1.339829476248477480e-02,2.436053593179049806e-02,1.532858880000000090e-01,-1.532858880000000090e-01,9.657010944000001373e+00
1.691119217702564352e+18,-2.436053593179049806e-03,1.339829476248477480e-02,3.775883069427527633e-02,1.532858880000000090e-01,-1.532858880000000090e-01,9.503725056000000393e+00
1.691119217712564480e+18,3.654080389768574709e-03,1.218026796589524903e-02,3.532277710109622132e-02,4.598576639999999993e-01,-3.065717760000000180e-01,9.503725056000000393e+00
1.691119217722564352e+18,1.218026796589524903e-03,1.218026796589524903e-02,2.923264311814859767e-02,1.532858880000000090e-01,-1.532858880000000090e-01,9.503725056000000393e+00
1.691119217732564480e+18,-1.218026796589524903e-03,1.461632155907429884e-02,2.314250913520097402e-02,3.065717760000000180e-01,-1.532858880000000090e-01,9.503725056000000393e+00
1.691119217742564352e+18,-1.096224116930572499e-02,9.744214372716199224e-03,3.532277710109622132e-02,4.598576639999999993e-01,-1.532858880000000090e-01,9.657010944000001373e+00
1.691119217752564480e+18,3.654080389768574709e-03,1.583434835566382287e-02,3.166869671132764574e-02,3.065717760000000180e-01,-3.065717760000000180e-01,9.657010944000001373e+00
1.691119217762564352e+18,2.436053593179049806e-03,1.339829476248477480e-02,3.288672350791717325e-02,0.000000000000000000e+00,-1.532858880000000090e-01,9.350439168000001189e+00
1.691119217772564480e+18,1.218026796589524903e-03,8.526187576126675188e-03,4.263093788063337247e-02,3.065717760000000180e-01,-3.065717760000000180e-01,9.503725056000000393e+00
1.691119217782564352e+18,2.436053593179049806e-03,9.744214372716199224e-03,2.923264311814859767e-02,3.065717760000000180e-01,0.000000000000000000e+00,9.503725056000000393e+00
1.691119217792564480e+18,1.218026796589524903e-03,7.308160779537149418e-03,3.532277710109622132e-02,0.000000000000000000e+00,-1.532858880000000090e-01,9.503725056000000393e+00
1.691119217802564352e+18,-3.654080389768574709e-03,8.526187576126675188e-03,2.923264311814859767e-02,0.000000000000000000e+00,-4.598576639999999993e-01,9.503725056000000393e+00
1.691119217812564480e+18,-1.218026796589524903e-03,1.218026796589524903e-02,2.557856272838002556e-02,3.065717760000000180e-01,-1.532858880000000090e-01,9.503725056000000393e+00
1.691119217822564352e+18,0.000000000000000000e+00,8.526187576126675188e-03,3.045066991473812518e-02,3.065717760000000180e-01,0.000000000000000000e+00,9.503725056000000393e+00
1.691119217832564480e+18,-4.872107186358099612e-03,1.096224116930572499e-02,3.288672350791717325e-02,0.000000000000000000e+00,-3.065717760000000180e-01,9.503725056000000393e+00
1.691119217842564352e+18,2.436053593179049806e-03,1.096224116930572499e-02,2.801461632155907364e-02,4.598576639999999993e-01,-1.532858880000000090e-01,9.657010944000001373e+00
1.691119217852564224e+18,-8.526187576126675188e-03,7.308160779537149418e-03,3.532277710109622132e-02,1.532858880000000090e-01,-1.532858880000000090e-01,9.503725056000000393e+00
1.691119217862564352e+18,7.308160779537149418e-03,1.705237515225335038e-02,2.679658952496954960e-02,3.065717760000000180e-01,-1.532858880000000090e-01,9.657010944000001373e+00
1.691119217872564224e+18,1.096224116930572499e-02,7.308160779537149418e-03,2.679658952496954960e-02,1.532858880000000090e-01,-3.065717760000000180e-01,9.350439168000001189e+00
1.691119217882564352e+18,2.436053593179049806e-03,6.090133982947624515e-03,3.775883069427527633e-02,1.532858880000000090e-01,0.000000000000000000e+00,9.503725056000000393e+00
1.691119217892564224e+18,-6.090133982947624515e-03,1.096224116930572499e-02,3.410475030450670075e-02,0.000000000000000000e+00,-1.532858880000000090e-01,9.657010944000001373e+00
1.691119217902564352e+18,1.218026796589524903e-03,1.096224116930572499e-02,2.436053593179049806e-02,3.065717760000000180e-01,-1.532858880000000090e-01,9.503725056000000393e+00
1.691119217912564224e+18,-1.461632155907429884e-02,1.096224116930572499e-02,2.557856272838002556e-02,3.065717760000000180e-01,-1.532858880000000090e-01,9.657010944000001373e+00
1.691119217922564352e+18,-1.218026796589524903e-03,1.705237515225335038e-02,3.288672350791717325e-02,7.664294400000000174e-01,-1.532858880000000090e-01,9.810296832000000578e+00
1.691119217932564224e+18,2.436053593179049806e-03,1.096224116930572499e-02,3.654080389768574882e-02,-1.532858880000000090e-01,0.000000000000000000e+00,9.657010944000001373e+00
1.691119217942564608e+18,-1.218026796589524903e-03,8.526187576126675188e-03,3.410475030450670075e-02,3.065717760000000180e-01,-1.532858880000000090e-01,9.657010944000001373e+00
1.691119217952564480e+18,1.218026796589524903e-03,1.096224116930572499e-02,4.019488428745432440e-02,1.532858880000000090e-01,-3.065717760000000180e-01,9.503725056000000393e+00
1.691119217962564352e+18,-6.090133982947624515e-03,1.339829476248477480e-02,2.679658952496954960e-02,3.065717760000000180e-01,-3.065717760000000180e-01,9.503725056000000393e+00
1.691119217972564480e+18,4.872107186358099612e-03,9.744214372716199224e-03,3.654080389768574882e-02,1.532858880000000090e-01,0.000000000000000000e+00,9.657010944000001373e+00
1.691119217982564352e+18,4.872107186358099612e-03,1.339829476248477480e-02,3.166869671132764574e-02,1.532858880000000090e-01,-1.532858880000000090e-01,9.657010944000001373e+00
1.691119217992564480e+18,3.654080389768574709e-03,1.218026796589524903e-02,3.045066991473812518e-02,3.065717760000000180e-01,-1.532858880000000090e-01,9.657010944000001373e+00
1.691119218002564352e+18,7.308160779537149418e-03,4.872107186358099612e-03,2.923264311814859767e-02,0.000000000000000000e+00,-1.532858880000000090e-01,9.657010944000001373e+00
1.691119218012564480e+18,-2.436053593179049806e-03,3.654080389768574709e-03,2.679658952496954960e-02,1.532858880000000090e-01,-1.532858880000000090e-01,9.657010944000001373e+00
1.691119218022564352e+18,2.436053593179049806e-03,1.339829476248477480e-02,2.801461632155907364e-02,1.532858880000000090e-01,-1.532858880000000090e-01,9.657010944000001373e+00
1.691119218032564480e+18,3.654080389768574709e-03,1.583434835566382287e-02,2.436053593179049806e-02,3.065717760000000180e-01,-1.532858880000000090e-01,9.657010944000001373e+00
1.691119218042564352e+18,4.872107186358099612e-03,1.339829476248477480e-02,2.801461632155907364e-02,3.065717760000000180e-01,-1.532858880000000090e-01,9.657010944000001373e+00
1.691119218052564480e+18,4.872107186358099612e-03,1.218026796589524903e-02,2.801461632155907364e-02,3.065717760000000180e-01,-1.532858880000000090e-01,9.503725056000000393e+00
1.691119218062564352e+18,4.872107186358099612e-03,1.218026796589524903e-02,4.263093788063337247e-02,1.532858880000000090e-01,-1.532858880000000090e-01,9.503725056000000393e+00
1.691119218072564480e+18,0.000000000000000000e+00,9.744214372716199224e-03,3.410475030450670075e-02,-1.532858880000000090e-01,-1.532858880000000090e-01,9.350439168000001189e+00
1.691119218082564352e+18,-1.218026796589524903e-03,9.744214372716199224e-03,3.166869671132764574e-02,3.065717760000000180e-01,-3.065717760000000180e-01,9.350439168000001189e+00
1.691119218092564224e+18,-1.218026796589524903e-03,2.436053593179049806e-03,3.897685749086479690e-02,3.065717760000000180e-01,-1.532858880000000090e-01,9.657010944000001373e+00
1.691119218102564352e+18,-1.218026796589524903e-03,1.096224116930572499e-02,3.166869671132764574e-02,1.532858880000000090e-01,-1.532858880000000090e-01,9.503725056000000393e+00
1.691119218112564224e+18,1.218026796589524903e-03,1.096224116930572499e-02,3.288672350791717325e-02,3.065717760000000180e-01,-1.532858880000000090e-01,9.503725056000000393e+00
1.691119218122564352e+18,6.090133982947624515e-03,8.526187576126675188e-03,3.410475030450670075e-02,4.598576639999999993e-01,-1.532858880000000090e-01,9.657010944000001373e+00
1.691119218132564224e+18,6.090133982947624515e-03,8.526187576126675188e-03,3.410475030450670075e-02,4.598576639999999993e-01,-1.532858880000000090e-01,9.657010944000001373e+00
1.691119218142564352e+18,-1.218026796589524903e-03,1.827040194884287441e-02,2.801461632155907364e-02,1.532858880000000090e-01,-1.532858880000000090e-01,9.657010944000001373e+00
1.691119218152564224e+18,3.654080389768574709e-03,1.096224116930572499e-02,2.070645554202192595e-02,7.664294400000000174e-01,-3.065717760000000180e-01,9.657010944000001373e+00
1.691119218162564352e+18,-2.436053593179049806e-03,2.436053593179049806e-03,2.557856272838002556e-02,1.532858880000000090e-01,-1.532858880000000090e-01,9.657010944000001373e+00
1.691119218172564224e+18,2.436053593179049806e-03,1.218026796589524903e-02,2.557856272838002556e-02,1.532858880000000090e-01,-1.532858880000000090e-01,9.503725056000000393e+00
1.691119218182564352e+18,4.872107186358099612e-03,1.461632155907429884e-02,2.679658952496954960e-02,3.065717760000000180e-01,-1.532858880000000090e-01,9.657010944000001373e+00
1.691119218192564480e+18,3.654080389768574709e-03,1.339829476248477480e-02,3.045066991473812518e-02,3.065717760000000180e-01,-3.065717760000000180e-01,9.503725056000000393e+00
1.691119218202564352e+18,-1.218026796589524903e-03,8.526187576126675188e-03,3.654080389768574882e-02,1.532858880000000090e-01,-1.532858880000000090e-01,9.657010944000001373e+00
1.691119218212564480e+18,2.436053593179049806e-03,1.339829476248477480e-02,3.654080389768574882e-02,4.598576639999999993e-01,-1.532858880000000090e-01,9.503725056000000393e+00
1.691119218222564352e+18,-2.436053593179049806e-03,7.308160779537149418e-03,3.288672350791717325e-02,1.532858880000000090e-01,-1.532858880000000090e-01,9.503725056000000393e+00
1.691119218232564480e+18,-6.090133982947624515e-03,4.872107186358099612e-03,2.801461632155907364e-02,4.598576639999999993e-01,-1.532858880000000090e-01,9.657010944000001373e+00
1.691119218242564352e+18,6.090133982947624515e-03,6.090133982947624515e-03,3.288672350791717325e-02,1.532858880000000090e-01,-3.065717760000000180e-01,9.503725056000000393e+00
1.691119218252564480e+18,6.090133982947624515e-03,1.339829476248477480e-02,3.532277710109622132e-02,4.598576639999999993e-01,-1.532858880000000090e-01,9.503725056000000393e+00
1.691119218262564352e+18,4.872107186358099612e-03,4.872107186358099612e-03,2.801461632155907364e-02,0.000000000000000000e+00,-1.532858880000000090e-01,9.503725056000000393e+00
1.691119218272564480e+18,6.090133982947624515e-03,8.526187576126675188e-03,1.948842874543239845e-02,1.532858880000000090e-01,-3.065717760000000180e-01,9.350439168000001189e+00
1.691119218282564352e+18,3.654080389768574709e-03,1.218026796589524903e-02,2.801461632155907364e-02,3.065717760000000180e-01,0.000000000000000000e+00,9.503725056000000393e+00
1.691119218292564480e+18,9.744214372716199224e-03,1.218026796589524903e-02,3.288672350791717325e-02,0.000000000000000000e+00,-1.532858880000000090e-01,9.657010944000001373e+00
1.691119218302564352e+18,0.000000000000000000e+00,8.526187576126675188e-03,3.532277710109622132e-02,0.000000000000000000e+00,-1.532858880000000090e-01,9.657010944000001373e+00
1.691119218312564480e+18,-1.218026796589524903e-03,1.461632155907429884e-02,2.801461632155907364e-02,1.532858880000000090e-01,-1.532858880000000090e-01,9.503725056000000393e+00
1.691119218322564352e+18,-1.218026796589524903e-03,1.218026796589524903e-02,2.557856272838002556e-02,3.065717760000000180e-01,-3.065717760000000180e-01,9.657010944000001373e+00
1.691119218332564480e+18,-2.436053593179049806e-03,8.526187576126675188e-03,3.166869671132764574e-02,1.532858880000000090e-01,-1.532858880000000090e-01,9.503725056000000393e+00
1.691119218342564352e+18,2.436053593179049806e-03,1.461632155907429884e-02,3.410475030450670075e-02,3.065717760000000180e-01,-1.532858880000000090e-01,9.503725056000000393e+00
1.691119218352564224e+18,3.654080389768574709e-03,9.744214372716199224e-03,2.801461632155907364e-02,1.532858880000000090e-01,-1.532858880000000090e-01,9.503725056000000393e+00
1.691119218362564352e+18,0.000000000000000000e+00,1.461632155907429884e-02,2.923264311814859767e-02,1.532858880000000090e-01,-1.532858880000000090e-01,9.503725056000000393e+00
1.691119218372564224e+18,1.218026796589524903e-03,9.744214372716199224e-03,2.923264311814859767e-02,3.065717760000000180e-01,-1.532858880000000090e-01,9.503725056000000393e+00
1.691119218382564352e+18,2.436053593179049806e-03,6.090133982947624515e-03,2.923264311814859767e-02,3.065717760000000180e-01,0.000000000000000000e+00,9.503725056000000393e+00
1.691119218392564224e+18,0.000000000000000000e+00,8.526187576126675188e-03,3.775883069427527633e-02,3.065717760000000180e-01,-1.532858880000000090e-01,9.657010944000001373e+00
1.691119218402564352e+18,-4.872107186358099612e-03,9.744214372716199224e-03,3.045066991473812518e-02,3.065717760000000180e-01,-1.532858880000000090e-01,9.503725056000000393e+00
1.691119218412564224e+18,9.744214372716199224e-03,1.461632155907429884e-02,2.557856272838002556e-02,3.065717760000000180e-01,-1.532858880000000090e-01,9.503725056000000393e+00
1.691119218422564352e+18,-1.218026796589524903e-03,8.526187576126675188e-03,2.801461632155907364e-02,1.532858880000000090e-01,-1.532858880000000090e-01,9.503725056000000393e+00
1.691119218432564224e+18,8.526187576126675188e-03,1.705237515225335038e-02,2.314250913520097402e-02,3.065717760000000180e-01,-3.065717760000000180e-01,9.503725056000000393e+00
1.691119218442564608e+18,0.000000000000000000e+00,9.744214372716199224e-03,3.410475030450670075e-02,6.131435520000000361e-01,-1.532858880000000090e-01,9.657010944000001373e+00
1.691119218452564480e+18,3.654080389768574709e-03,9.744214372716199224e-03,2.436053593179049806e-02,3.065717760000000180e-01,-3.065717760000000180e-01,9.503725056000000393e+00
1.691119218462564352e+18,0.000000000000000000e+00,1.096224116930572499e-02,3.288672350791717325e-02,0.000000000000000000e+00,-1.532858880000000090e-01,9.657010944000001373e+00
1.691119218472564480e+18,-2.436053593179049806e-03,7.308160779537149418e-03,2.557856272838002556e-02,3.065717760000000180e-01,-1.532858880000000090e-01,9.503725056000000393e+00
1.691119218482564352e+18,2.436053593179049806e-03,4.872107186358099612e-03,3.288672350791717325e-02,6.131435520000000361e-01,-3.065717760000000180e-01,9.657010944000001373e+00
1.691119218492564480e+18,2.436053593179049806e-03,4.872107186358099612e-03,3.045066991473812518e-02,0.000000000000000000e+00,-3.065717760000000180e-01,9.503725056000000393e+00
1.691119218502564352e+18,0.000000000000000000e+00,6.090133982947624515e-03,2.923264311814859767e-02,0.000000000000000000e+00,-1.532858880000000090e-01,9.350439168000001189e+00
1.691119218512564480e+18,-9.744214372716199224e-03,1.339829476248477480e-02,2.679658952496954960e-02,4.598576639999999993e-01,-1.532858880000000090e-01,9.657010944000001373e+00
1.691119218522564352e+18,6.090133982947624515e-03,7.308160779537149418e-03,4.263093788063337247e-02,1.532858880000000090e-01,-1.532858880000000090e-01,9.503725056000000393e+00
1.691119218532564480e+18,-1.948842874543239845e-02,9.744214372716199224e-03,3.288672350791717325e-02,0.000000000000000000e+00,-3.065717760000000180e-01,9.503725056000000393e+00
1.691119218542564352e+18,-3.654080389768574709e-03,6.090133982947624515e-03,3.045066991473812518e-02,4.598576639999999993e-01,-3.065717760000000180e-01,9.657010944000001373e+00
1.691119218552564480e+18,-4.872107186358099612e-03,1.218026796589524903e-02,3.045066991473812518e-02,3.065717760000000180e-01,-1.532858880000000090e-01,9.503725056000000393e+00
1.691119218562564352e+18,-4.872107186358099612e-03,1.339829476248477480e-02,3.288672350791717325e-02,3.065717760000000180e-01,-1.532858880000000090e-01,9.503725056000000393e+00
1.691119218572564480e+18,-2.436053593179049806e-03,8.526187576126675188e-03,2.436053593179049806e-02,0.000000000000000000e+00,0.000000000000000000e+00,9.657010944000001373e+00
1.691119218582564352e+18,6.090133982947624515e-03,1.218026796589524903e-03,2.801461632155907364e-02,3.065717760000000180e-01,-1.532858880000000090e-01,9.657010944000001373e+00
1.691119218592564224e+18,2.436053593179049806e-03,1.218026796589524903e-02,3.045066991473812518e-02,3.065717760000000180e-01,-3.065717760000000180e-01,9.503725056000000393e+00
1.691119218602564352e+18,9.744214372716199224e-03,1.583434835566382287e-02,3.288672350791717325e-02,4.598576639999999993e-01,-3.065717760000000180e-01,9.503725056000000393e+00
1.691119218612564224e+18,-9.744214372716199224e-03,6.090133982947624515e-03,3.532277710109622132e-02,3.065717760000000180e-01,-1.532858880000000090e-01,9.657010944000001373e+00
1.691119218622564352e+18,-1.705237515225335038e-02,1.096224116930572499e-02,3.288672350791717325e-02,4.598576639999999993e-01,-1.532858880000000090e-01,9.503725056000000393e+00
1.691119218632564224e+18,4.872107186358099612e-03,6.090133982947624515e-03,2.557856272838002556e-02,1.532858880000000090e-01,-1.532858880000000090e-01,9.503725056000000393e+00
1.691119218642564352e+18,6.090133982947624515e-03,8.526187576126675188e-03,3.045066991473812518e-02,1.532858880000000090e-01,-1.532858880000000090e-01,9.503725056000000393e+00
1.691119218652564224e+18,1.218026796589524903e-03,2.436053593179049806e-03,2.923264311814859767e-02,3.065717760000000180e-01,-1.532858880000000090e-01,9.657010944000001373e+00
1.691119218662564352e+18,-2.436053593179049806e-03,1.218026796589524903e-02,3.532277710109622132e-02,1.532858880000000090e-01,-1.532858880000000090e-01,9.503725056000000393e+00
1.691119218672564224e+18,-6.090133982947624515e-03,2.436053593179049806e-03,3.410475030450670075e-02,1.532858880000000090e-01,-3.065717760000000180e-01,9.657010944000001373e+00
1.691119218682564352e+18,1.218026796589524903e-03,1.339829476248477480e-02,3.045066991473812518e-02,1.532858880000000090e-01,-3.065717760000000180e-01,9.657010944000001373e+00
1.691119218692564480e+18,-1.218026796589524903e-03,8.526187576126675188e-03,2.923264311814859767e-02,3.065717760000000180e-01,-1.532858880000000090e-01,9.503725056000000393e+00
1.691119218702564352e+18,1.218026796589524903e-03,1.339829476248477480e-02,4.141291108404385191e-02,1.532858880000000090e-01,-1.532858880000000090e-01,9.657010944000001373e+00
1.691119218712564480e+18,-3.654080389768574709e-03,3.654080389768574709e-03,3.897685749086479690e-02,3.065717760000000180e-01,-3.065717760000000180e-01,9.657010944000001373e+00
1.691119218722564352e+18,1.218026796589524903e-03,1.096224116930572499e-02,2.314250913520097402e-02,1.532858880000000090e-01,-1.532858880000000090e-01,9.657010944000001373e+00
1.691119218732564480e+18,1.218026796589524903e-03,1.461632155907429884e-02,3.288672350791717325e-02,1.532858880000000090e-01,-1.532858880000000090e-01,9.350439168000001189e+00
1.691119218742564352e+18,2.436053593179049806e-03,9.744214372716199224e-03,3.045066991473812518e-02,0.000000000000000000e+00,-1.532858880000000090e-01,9.657010944000001373e+00
1.691119218752564480e+18,7.308160779537149418e-03,1.096224116930572499e-02,2.801461632155907364e-02,1.532858880000000090e-01,0.000000000000000000e+00,9.657010944000001373e+00
1.691119218762564352e+18,8.526187576126675188e-03,4.872107186358099612e-03,2.801461632155907364e-02,0.000000000000000000e+00,-1.532858880000000090e-01,9.503725056000000393e+00
1.691119218772564480e+18,-7.308160779537149418e-03,1.339829476248477480e-02,2.679658952496954960e-02,0.000000000000000000e+00,-1.532858880000000090e-01,9.503725056000000393e+00
1.691119218782564352e+18,-4.872107186358099612e-03,9.744214372716199224e-03,2.923264311814859767e-02,1.532858880000000090e-01,-1.532858880000000090e-01,9.503725056000000393e+00
1.691119218792564480e+18,1.218026796589524903e-03,1.339829476248477480e-02,2.679658952496954960e-02,6.131435520000000361e-01,-1.532858880000000090e-01,9.657010944000001373e+00
1.691119218802564352e+18,-8.526187576126675188e-03,4.872107186358099612e-03,3.288672350791717325e-02,1.532858880000000090e-01,-1.532858880000000090e-01,9.657010944000001373e+00
1.691119218812564480e+18,4.872107186358099612e-03,9.744214372716199224e-03,2.314250913520097402e-02,3.065717760000000180e-01,-1.532858880000000090e-01,9.350439168000001189e+00
1.691119218822564352e+18,-1.583434835566382287e-02,7.308160779537149418e-03,2.314250913520097402e-02,3.065717760000000180e-01,-1.532858880000000090e-01,9.503725056000000393e+00
1.691119218832564480e+18,3.654080389768574709e-03,8.526187576126675188e-03,2.436053593179049806e-02,-1.532858880000000090e-01,-1.532858880000000090e-01,9.657010944000001373e+00
1.691119218842564352e+18,-1.218026796589524903e-03,6.090133982947624515e-03,3.166869671132764574e-02,0.000000000000000000e+00,-1.532858880000000090e-01,9.657010944000001373e+00
1.691119218852564224e+18,-2.436053593179049806e-03,1.339829476248477480e-02,2.557856272838002556e-02,3.065717760000000180e-01,-3.065717760000000180e-01,9.350439168000001189e+00
1.691119218862564352e+18,0.000000000000000000e+00,1.339829476248477480e-02,3.045066991473812518e-02,1.532858880000000090e-01,-3.065717760000000180e-01,9.657010944000001373e+00
1.691119218872564224e+18,8.526187576126675188e-03,8.526187576126675188e-03,3.775883069427527633e-02,3.065717760000000180e-01,-1.532858880000000090e-01,9.657010944000001373e+00
1.691119218882564352e+18,-1.218026796589524903e-03,4.872107186358099612e-03,3.775883069427527633e-02,0.000000000000000000e+00,-3.065717760000000180e-01,9.657010944000001373e+00
1.691119218892564224e+18,4.872107186358099612e-03,1.218026796589524903e-02,3.045066991473812518e-02,7.664294400000000174e-01,-1.532858880000000090e-01,9.657010944000001373e+00
1.691119218902564352e+18,-7.308160779537149418e-03,1.218026796589524903e-02,2.679658952496954960e-02,0.000000000000000000e+00,-1.532858880000000090e-01,9.503725056000000393e+00
1.691119218912564224e+18,6.090133982947624515e-03,1.096224116930572499e-02,2.436053593179049806e-02,0.000000000000000000e+00,-1.532858880000000090e-01,9.657010944000001373e+00
1.691119218922564352e+18,-4.872107186358099612e-03,7.308160779537149418e-03,3.166869671132764574e-02,3.065717760000000180e-01,0.000000000000000000e+00,9.657010944000001373e+00
1.691119218932564224e+18,3.654080389768574709e-03,1.339829476248477480e-02,2.923264311814859767e-02,3.065717760000000180e-01,-3.065717760000000180e-01,9.350439168000001189e+00
1.691119218942564608e+18,0.000000000000000000e+00,6.090133982947624515e-03,3.045066991473812518e-02,3.065717760000000180e-01,-1.532858880000000090e-01,9.657010944000001373e+00
1.691119218952564480e+18,-1.218026796589524903e-03,1.583434835566382287e-02,3.288672350791717325e-02,1.532858880000000090e-01,-3.065717760000000180e-01,9.657010944000001373e+00
1.691119218962564352e+18,7.308160779537149418e-03,8.526187576126675188e-03,2.557856272838002556e-02,1.532858880000000090e-01,-1.532858880000000090e-01,9.657010944000001373e+00
1.691119218972564480e+18,2.436053593179049806e-03,1.218026796589524903e-02,2.557856272838002556e-02,4.598576639999999993e-01,-3.065717760000000180e-01,9.503725056000000393e+00
1.691119218982564352e+18,9.744214372716199224e-03,8.526187576126675188e-03,3.288672350791717325e-02,1.532858880000000090e-01,-1.532858880000000090e-01,9.657010944000001373e+00
1.691119218992564480e+18,8.526187576126675188e-03,9.744214372716199224e-03,2.801461632155907364e-02,4.598576639999999993e-01,-1.532858880000000090e-01,9.657010944000001373e+00
1.691119219002564352e+18,2.436053593179049806e-03,2.314250913520097402e-02,3.288672350791717325e-02,4.598576639999999993e-01,-3.065717760000000180e-01,9.657010944000001373e+00
1.691119219012564480e+18,-9.744214372716199224e-03,1.339829476248477480e-02,2.801461632155907364e-02,-3.065717760000000180e-01,0.000000000000000000e+00,9.043867392000001004e+00
1.691119219022564352e+18,6.090133982947624515e-03,1.339829476248477480e-02,2.679658952496954960e-02,1.532858880000000090e-01,-1.532858880000000090e-01,9.657010944000001373e+00
1.691119219032564480e+18,3.654080389768574709e-03,8.526187576126675188e-03,3.045066991473812518e-02,3.065717760000000180e-01,-1.532858880000000090e-01,9.503725056000000393e+00
1.691119219042564352e+18,-2.436053593179049806e-03,1.583434835566382287e-02,2.314250913520097402e-02,3.065717760000000180e-01,-1.532858880000000090e-01,9.657010944000001373e+00
1.691119219052564480e+18,-1.218026796589524903e-03,1.096224116930572499e-02,2.923264311814859767e-02,1.532858880000000090e-01,-1.532858880000000090e-01,9.503725056000000393e+00
1.691119219062564352e+18,-3.654080389768574709e-03,8.526187576126675188e-03,2.557856272838002556e-02,3.065717760000000180e-01,-1.532858880000000090e-01,9.657010944000001373e+00
1.691119219072564480e+18,2.436053593179049806e-03,4.872107186358099612e-03,3.410475030450670075e-02,3.065717760000000180e-01,-1.532858880000000090e-01,9.503725056000000393e+00
1.691119219082564352e+18,4.872107186358099612e-03,1.583434835566382287e-02,2.923264311814859767e-02,1.532858880000000090e-01,-3.065717760000000180e-01,9.503725056000000393e+00
1.691119219092564224e+18,8.526187576126675188e-03,8.526187576126675188e-03,3.410475030450670075e-02,0.000000000000000000e+00,-1.532858880000000090e-01,9.503725056000000393e+00
1.691119219102564352e+18,-1.218026796589524903e-03,1.096224116930572499e-02,3.166869671132764574e-02,1.532858880000000090e-01,-1.532858880000000090e-01,9.657010944000001373e+00
1.691119219112564224e+18,0.000000000000000000e+00,1.583434835566382287e-02,3.166869671132764574e-02,0.000000000000000000e+00,-3.065717760000000180e-01,9.657010944000001373e+00
1.691119219122564352e+18,-1.096224116930572499e-02,1.583434835566382287e-02,3.288672350791717325e-02,1.532858880000000090e-01,-1.532858880000000090e-01,9.503725056000000393e+00
1.691119219132564224e+18,-2.436053593179049806e-03,1.339829476248477480e-02,2.436053593179049806e-02,0.000000000000000000e+00,-1.532858880000000090e-01,9.503725056000000393e+00
1.691119219142564352e+18,-2.436053593179049806e-03,3.654080389768574709e-03,3.288672350791717325e-02,1.532858880000000090e-01,-1.532858880000000090e-01,9.657010944000001373e+00
1.691119219152564224e+18,-3.654080389768574709e-03,8.526187576126675188e-03,3.166869671132764574e-02,3.065717760000000180e-01,-1.532858880000000090e-01,9.503725056000000393e+00
1.691119219162564352e+18,2.436053593179049806e-03,1.096224116930572499e-02,2.923264311814859767e-02,-1.532858880000000090e-01,-1.532858880000000090e-01,9.503725056000000393e+00
1.691119219172564224e+18,-4.872107186358099612e-03,1.583434835566382287e-02,2.557856272838002556e-02,3.065717760000000180e-01,-1.532858880000000090e-01,9.503725056000000393e+00
1.691119219182564352e+18,-3.654080389768574709e-03,1.218026796589524903e-02,2.070645554202192595e-02,1.532858880000000090e-01,-1.532858880000000090e-01,9.350439168000001189e+00
1.691119219192564480e+18,0.000000000000000000e+00,8.526187576126675188e-03,2.801461632155907364e-02,3.065717760000000180e-01,-1.532858880000000090e-01,9.657010944000001373e+00
1.691119219202564352e+18,0.000000000000000000e+00,0.000000000000000000e+00,2.923264311814859767e-02,1.532858880000000090e-01,-1.532858880000000090e-01,9.503725056000000393e+00
1.691119219212564480e+18,-4.872107186358099612e-03,8.526187576126675188e-03,3.045066991473812518e-02,1.532858880000000090e-01,-3.065717760000000180e-01,9.657010944000001373e+00
1.691119219222564352e+18,8.526187576126675188e-03,9.744214372716199224e-03,2.923264311814859767e-02,3.065717760000000180e-01,-1.532858880000000090e-01,9.503725056000000393e+00
1.691119219232564480e+18,-2.436053593179049806e-03,1.827040194884287441e-02,2.314250913520097402e-02,3.065717760000000180e-01,-1.532858880000000090e-01,9.657010944000001373e+00
1.691119219242564352e+18,2.436053593179049806e-03,1.461632155907429884e-02,3.166869671132764574e-02,4.598576639999999993e-01,-1.532858880000000090e-01,9.503725056000000393e+00
1.691119219252564480e+18,3.654080389768574709e-03,1.583434835566382287e-02,3.288672350791717325e-02,1.532858880000000090e-01,-1.532858880000000090e-01,9.657010944000001373e+00
1.691119219262564352e+18,-8.526187576126675188e-03,1.705237515225335038e-02,2.557856272838002556e-02,1.532858880000000090e-01,-1.532858880000000090e-01,9.657010944000001373e+00
1.691119219272564480e+18,8.526187576126675188e-03,8.526187576126675188e-03,2.679658952496954960e-02,3.065717760000000180e-01,-3.065717760000000180e-01,9.503725056000000393e+00
1.691119219282564352e+18,-4.872107186358099612e-03,4.872107186358099612e-03,2.557856272838002556e-02,4.598576639999999993e-01,-1.532858880000000090e-01,9.657010944000001373e+00
1.691119219292564480e+18,6.090133982947624515e-03,1.218026796589524903e-02,2.801461632155907364e-02,3.065717760000000180e-01,-1.532858880000000090e-01,9.657010944000001373e+00
1.691119219302564352e+18,-1.339829476248477480e-02,1.218026796589524903e-02,3.045066991473812518e-02,3.065717760000000180e-01,-1.532858880000000090e-01,9.503725056000000393e+00
1.691119219312564480e+18,7.308160779537149418e-03,6.090133982947624515e-03,3.288672350791717325e-02,1.532858880000000090e-01,-1.532858880000000090e-01,9.503725056000000393e+00
1.691119219322564352e+18,4.872107186358099612e-03,3.654080389768574709e-03,3.288672350791717325e-02,3.065717760000000180e-01,-3.065717760000000180e-01,9.503725056000000393e+00
1.691119219332564480e+18,-1.218026796589524903e-03,1.827040194884287441e-02,2.923264311814859767e-02,3.065717760000000180e-01,-3.065717760000000180e-01,9.657010944000001373e+00
1.691119219342564352e+18,-8.526187576126675188e-03,9.744214372716199224e-03,2.801461632155907364e-02,1.532858880000000090e-01,-1.532858880000000090e-01,9.657010944000001373e+00
1.691119219352564224e+18,-2.436053593179049806e-03,6.090133982947624515e-03,2.923264311814859767e-02,3.065717760000000180e-01,-1.532858880000000090e-01,9.503725056000000393e+00
1.691119219362564352e+18,-2.436053593179049806e-03,1.583434835566382287e-02,2.679658952496954960e-02,4.598576639999999993e-01,-1.532858880000000090e-01,9.657010944000001373e+00
1.691119219372564224e+18,-1.218026796589524903e-03,1.218026796589524903e-02,2.314250913520097402e-02,3.065717760000000180e-01,-1.532858880000000090e-01,9.810296832000000578e+00
1.691119219382564352e+18,0.000000000000000000e+00,3.654080389768574709e-03,2.557856272838002556e-02,1.532858880000000090e-01,-1.532858880000000090e-01,9.503725056000000393e+00
1.691119219392564224e+18,6.090133982947624515e-03,4.872107186358099612e-03,2.923264311814859767e-02,3.065717760000000180e-01,-1.532858880000000090e-01,9.657010944000001373e+00
1.691119219402564352e+18,-1.218026796589524903e-03,6.090133982947624515e-03,3.897685749086479690e-02,-1.532858880000000090e-01,0.000000000000000000e+00,9.657010944000001373e+00
1.691119219412564224e+18,2.436053593179049806e-03,1.096224116930572499e-02,3.288672350791717325e-02,4.598576639999999993e-01,-1.532858880000000090e-01,9.503725056000000393e+00
1.691119219422564352e+18,9.744214372716199224e-03,6.090133982947624515e-03,3.288672350791717325e-02,1.532858880000000090e-01,-1.532858880000000090e-01,9.503725056000000393e+00
1.691119219432564224e+18,9.744214372716199224e-03,1.218026796589524903e-02,2.557856272838002556e-02,1.532858880000000090e-01,-1.532858880000000090e-01,9.657010944000001373e+00
1.691119219442564608e+18,-1.218026796589524903e-03,1.096224116930572499e-02,3.045066991473812518e-02,3.065717760000000180e-01,-1.532858880000000090e-01,9.503725056000000393e+00
1.691119219452564480e+18,3.654080389768574709e-03,1.705237515225335038e-02,2.557856272838002556e-02,1.532858880000000090e-01,-1.532858880000000090e-01,9.657010944000001373e+00
1.691119219462564352e+18,1.218026796589524903e-03,7.308160779537149418e-03,2.923264311814859767e-02,0.000000000000000000e+00,-3.065717760000000180e-01,9.657010944000001373e+00
1.691119219472564480e+18,1.096224116930572499e-02,8.526187576126675188e-03,3.410475030450670075e-02,3.065717760000000180e-01,-1.532858880000000090e-01,9.350439168000001189e+00
1.691119219482564352e+18,-6.090133982947624515e-03,8.526187576126675188e-03,2.557856272838002556e-02,1.532858880000000090e-01,-1.532858880000000090e-01,9.503725056000000393e+00
1.691119219492564480e+18,2.436053593179049806e-03,1.096224116930572499e-02,2.314250913520097402e-02,1.532858880000000090e-01,-1.532858880000000090e-01,9.810296832000000578e+00
1.691119219502564352e+18,-3.654080389768574709e-03,7.308160779537149418e-03,3.775883069427527633e-02,0.000000000000000000e+00,-1.532858880000000090e-01,9.503725056000000393e+00
1.691119219512564480e+18,-1.218026796589524903e-03,6.090133982947624515e-03,3.410475030450670075e-02,4.598576639999999993e-01,-3.065717760000000180e-01,9.503725056000000393e+00
1.691119219522564352e+18,-2.436053593179049806e-03,1.218026796589524903e-02,3.532277710109622132e-02,3.065717760000000180e-01,-1.532858880000000090e-01,9.503725056000000393e+00
1.691119219532564480e+18,-6.090133982947624515e-03,1.218026796589524903e-02,2.923264311814859767e-02,3.065717760000000180e-01,-3.065717760000000180e-01,9.503725056000000393e+00
1.691119219542564352e+18,-1.096224116930572499e-02,1.583434835566382287e-02,2.557856272838002556e-02,0.000000000000000000e+00,-1.532858880000000090e-01,9.503725056000000393e+00
1.691119219552564480e+18,-3.654080389768574709e-03,7.308160779537149418e-03,3.045066991473812518e-02,1.532858880000000090e-01,-3.065717760000000180e-01,9.350439168000001189e+00
1.691119219562564352e+18,-6.090133982947624515e-03,1.096224116930572499e-02,3.045066991473812518e-02,3.065717760000000180e-01,-3.065717760000000180e-01,9.657010944000001373e+00
1.691119219572564480e+18,-3.654080389768574709e-03,0.000000000000000000e+00,2.557856272838002556e-02,1.532858880000000090e-01,-1.532858880000000090e-01,9.657010944000001373e+00
1.691119219582564352e+18,6.090133982947624515e-03,1.096224116930572499e-02,2.314250913520097402e-02,3.065717760000000180e-01,-1.532858880000000090e-01,9.503725056000000393e+00
1.691119219592564224e+18,-1.218026796589524903e-02,7.308160779537149418e-03,2.679658952496954960e-02,-4.598576639999999993e-01,-3.065717760000000180e-01,9.657010944000001373e+00
1.691119219602564352e+18,7.308160779537149418e-03,1.218026796589524903e-02,3.654080389768574882e-02,1.532858880000000090e-01,-1.532858880000000090e-01,9.503725056000000393e+00
1.691119219612564224e+18,-1.218026796589524903e-03,9.744214372716199224e-03,2.923264311814859767e-02,1.532858880000000090e-01,-1.532858880000000090e-01,9.657010944000001373e+00
1.691119219622564352e+18,8.526187576126675188e-03,4.872107186358099612e-03,3.045066991473812518e-02,3.065717760000000180e-01,-3.065717760000000180e-01,9.503725056000000393e+00
1.691119219632564224e+18,-3.654080389768574709e-03,1.218026796589524903e-02,3.045066991473812518e-02,3.065717760000000180e-01,-1.532858880000000090e-01,9.503725056000000393e+00
1.691119219642564352e+18,-8.526187576126675188e-03,1.096224116930572499e-02,2.801461632155907364e-02,1.532858880000000090e-01,-1.532858880000000090e-01,9.657010944000001373e+00
1.691119219652564224e+18,-3.654080389768574709e-03,7.308160779537149418e-03,2.557856272838002556e-02,3.065717760000000180e-01,-1.532858880000000090e-01,9.503725056000000393e+00
1.691119219662564352e+18,2.436053593179049806e-03,8.526187576126675188e-03,3.532277710109622132e-02,3.065717760000000180e-01,-1.532858880000000090e-01,9.657010944000001373e+00
1.691119219672564224e+18,1.096224116930572499e-02,1.339829476248477480e-02,2.801461632155907364e-02,-3.065717760000000180e-01,-1.532858880000000090e-01,9.657010944000001373e+00
1.691119219682564352e+18,-7.308160779537149418e-03,3.654080389768574709e-03,2.679658952496954960e-02,3.065717760000000180e-01,-3.065717760000000180e-01,9.657010944000001373e+00
1.691119219692564480e+18,0.000000000000000000e+00,6.090133982947624515e-03,2.679658952496954960e-02,3.065717760000000180e-01,0.000000000000000000e+00,9.657010944000001373e+00
1.691119219702564352e+18,-3.654080389768574709e-03,2.436053593179049806e-03,2.923264311814859767e-02,3.065717760000000180e-01,-1.532858880000000090e-01,9.503725056000000393e+00
1.691119219712564480e+18,3.654080389768574709e-03,1.218026796589524903e-02,4.019488428745432440e-02,3.065717760000000180e-01,0.000000000000000000e+00,9.503725056000000393e+00
1.691119219722564352e+18,3.654080389768574709e-03,8.526187576126675188e-03,3.045066991473812518e-02,4.598576639999999993e-01,-3.065717760000000180e-01,9.503725056000000393e+00
1.691119219732564480e+18,0.000000000000000000e+00,7.308160779537149418e-03,2.679658952496954960e-02,1.532858880000000090e-01,-3.065717760000000180e-01,9.657010944000001373e+00
1.691119219742564352e+18,7.308160779537149418e-03,1.218026796589524903e-02,2.679658952496954960e-02,3.065717760000000180e-01,-1.532858880000000090e-01,9.503725056000000393e+00
1.691119219752564480e+18,-3.654080389768574709e-03,1.339829476248477480e-02,2.801461632155907364e-02,1.532858880000000090e-01,0.000000000000000000e+00,9.503725056000000393e+00
1.691119219762564352e+18,-9.744214372716199224e-03,8.526187576126675188e-03,2.557856272838002556e-02,4.598576639999999993e-01,-3.065717760000000180e-01,9.503725056000000393e+00
1.691119219772564480e+18,8.526187576126675188e-03,3.654080389768574709e-03,3.775883069427527633e-02,3.065717760000000180e-01,-1.532858880000000090e-01,9.503725056000000393e+00
1.691119219782564352e+18,-8.526187576126675188e-03,1.339829476248477480e-02,3.288672350791717325e-02,4.598576639999999993e-01,-1.532858880000000090e-01,9.657010944000001373e+00
1.691119219792564480e+18,2.436053593179049806e-03,1.705237515225335038e-02,3.166869671132764574e-02,1.532858880000000090e-01,-1.532858880000000090e-01,9.503725056000000393e+00
1.691119219802564352e+18,0.000000000000000000e+00,7.308160779537149418e-03,3.288672350791717325e-02,3.065717760000000180e-01,-1.532858880000000090e-01,9.503725056000000393e+00
1.691119219812564480e+18,-1.218026796589524903e-03,4.872107186358099612e-03,2.679658952496954960e-02,1.532858880000000090e-01,-1.532858880000000090e-01,9.657010944000001373e+00
1.691119219822564352e+18,6.090133982947624515e-03,9.744214372716199224e-03,3.045066991473812518e-02,6.131435520000000361e-01,-1.532858880000000090e-01,9.503725056000000393e+00
1.691119219832564480e+18,3.654080389768574709e-03,3.654080389768574709e-03,2.679658952496954960e-02,0.000000000000000000e+00,-1.532858880000000090e-01,9.657010944000001373e+00
1.691119219842564352e+18,1.218026796589524903e-03,1.218026796589524903e-02,2.314250913520097402e-02,1.532858880000000090e-01,-1.532858880000000090e-01,9.657010944000001373e+00
1.691119219852564224e+18,-8.526187576126675188e-03,1.218026796589524903e-02,2.801461632155907364e-02,3.065717760000000180e-01,-1.532858880000000090e-01,9.657010944000001373e+00
1.691119219862564352e+18,0.000000000000000000e+00,1.096224116930572499e-02,2.436053593179049806e-02,4.598576639999999993e-01,-1.532858880000000090e-01,1.011686860800000076e+01
1.691119219872564224e+18,1.218026796589524903e-03,4.872107186358099612e-03,2.314250913520097402e-02,3.065717760000000180e-01,-1.532858880000000090e-01,9.503725056000000393e+00
1.691119219882564352e+18,6.090133982947624515e-03,1.096224116930572499e-02,3.166869671132764574e-02,3.065717760000000180e-01,-1.532858880000000090e-01,9.810296832000000578e+00
1.691119219892564224e+18,-6.090133982947624515e-03,8.526187576126675188e-03,3.288672350791717325e-02,4.598576639999999993e-01,-3.065717760000000180e-01,9.657010944000001373e+00
1.691119219902564352e+18,0.000000000000000000e+00,1.827040194884287441e-02,3.045066991473812518e-02,7.664294400000000174e-01,-3.065717760000000180e-01,9.657010944000001373e+00
1.691119219912564224e+18,6.090133982947624515e-03,2.436053593179049806e-03,2.557856272838002556e-02,0.000000000000000000e+00,-1.532858880000000090e-01,9.657010944000001373e+00
1.691119219922564352e+18,0.000000000000000000e+00,1.096224116930572499e-02,3.410475030450670075e-02,1.532858880000000090e-01,-3.065717760000000180e-01,9.503725056000000393e+00
1.691119219932564224e+18,6.090133982947624515e-03,1.339829476248477480e-02,2.923264311814859767e-02,4.598576639999999993e-01,-1.532858880000000090e-01,9.810296832000000578e+00
1.691119219942564608e+18,-2.436053593179049806e-03,9.744214372716199224e-03,3.045066991473812518e-02,1.532858880000000090e-01,-3.065717760000000180e-01,9.657010944000001373e+00
1.691119219952564480e+18,0.000000000000000000e+00,1.339829476248477480e-02,2.436053593179049806e-02,4.598576639999999993e-01,-3.065717760000000180e-01,9.503725056000000393e+00
1.691119219962564352e+18,-6.090133982947624515e-03,8.526187576126675188e-03,2.436053593179049806e-02,3.065717760000000180e-01,-1.532858880000000090e-01,9.657010944000001373e+00
1.691119219972564480e+18,0.000000000000000000e+00,9.744214372716199224e-03,3.775883069427527633e-02,1.532858880000000090e-01,-1.532858880000000090e-01,9.503725056000000393e+00
1.691119219982564352e+18,-3.654080389768574709e-03,3.654080389768574709e-03,3.410475030450670075e-02,3.065717760000000180e-01,-1.532858880000000090e-01,9.503725056000000393e+00
1.691119219992564480e+18,3.654080389768574709e-03,1.339829476248477480e-02,3.288672350791717325e-02,1.532858880000000090e-01,-1.532858880000000090e-01,9.657010944000001373e+00
1.691119220002564352e+18,3.654080389768574709e-03,8.526187576126675188e-03,2.923264311814859767e-02,0.000000000000000000e+00,-1.532858880000000090e-01,9.503725056000000393e+00
1.691119220012564480e+18,6.090133982947624515e-03,7.308160779537149418e-03,3.410475030450670075e-02,3.065717760000000180e-01,-3.065717760000000180e-01,9.657010944000001373e+00
1.691119220022564352e+18,1.218026796589524903e-02,1.461632155907429884e-02,3.166869671132764574e-02,1.532858880000000090e-01,-3.065717760000000180e-01,9.503725056000000393e+00
1.691119220032564480e+18,-8.526187576126675188e-03,7.308160779537149418e-03,2.436053593179049806e-02,3.065717760000000180e-01,-1.532858880000000090e-01,9.503725056000000393e+00
1.691119220042564352e+18,1.096224116930572499e-02,3.654080389768574709e-03,3.410475030450670075e-02,1.532858880000000090e-01,-1.532858880000000090e-01,9.503725056000000393e+00
1.691119220052564480e+18,-2.436053593179049806e-03,1.218026796589524903e-02,3.166869671132764574e-02,0.000000000000000000e+00,-1.532858880000000090e-01,9.350439168000001189e+00
1.691119220062564352e+18,1.096224116930572499e-02,8.526187576126675188e-03,2.923264311814859767e-02,3.065717760000000180e-01,-3.065717760000000180e-01,9.503725056000000393e+00
1.691119220072564480e+18,4.872107186358099612e-03,1.096224116930572499e-02,2.192448233861144999e-02,0.000000000000000000e+00,-1.532858880000000090e-01,9.657010944000001373e+00
1.691119220082564352e+18,4.872107186358099612e-03,1.339829476248477480e-02,3.288672350791717325e-02,1.532858880000000090e-01,-3.065717760000000180e-01,9.657010944000001373e+00
1.691119220092564224e+18,2.436053593179049806e-03,1.218026796589524903e-02,2.801461632155907364e-02,1.532858880000000090e-01,-3.065717760000000180e-01,9.657010944000001373e+00
1.691119220102564352e+18,-3.654080389768574709e-03,8.526187576126675188e-03,2.679658952496954960e-02,1.532858880000000090e-01,-1.532858880000000090e-01,9.503725056000000393e+00
1.691119220112564224e+18,4.872107186358099612e-03,8.526187576126675188e-03,3.654080389768574882e-02,4.598576639999999993e-01,-1.532858880000000090e-01,9.503725056000000393e+00
1.691119220122564352e+18,-1.096224116930572499e-02,6.090133982947624515e-03,3.288672350791717325e-02,0.000000000000000000e+00,-1.532858880000000090e-01,9.657010944000001373e+00
1.691119220132564224e+18,1.218026796589524903e-03,9.744214372716199224e-03,3.045066991473812518e-02,4.598576639999999993e-01,-1.532858880000000090e-01,9.503725056000000393e+00
1.691119220142564352e+18,-3.654080389768574709e-03,4.872107186358099612e-03,2.070645554202192595e-02,1.532858880000000090e-01,-3.065717760000000180e-01,9.503725056000000393e+00
1.691119220152564224e+18,-3.654080389768574709e-03,8.526187576126675188e-03,3.166869671132764574e-02,1.532858880000000090e-01,-1.532858880000000090e-01,9.657010944000001373e+00
1.691119220162564352e+18,-1.218026796589524903e-02,1.461632155907429884e-02,2.070645554202192595e-02,3.065717760000000180e-01,-1.532858880000000090e-01,9.503725056000000393e+00
1.691119220172564224e+18,9.744214372716199224e-03,7.308160779537149418e-03,2.801461632155907364e-02,0.000000000000000000e+00,-3.065717760000000180e-01,9.350439168000001189e+00
1.691119220182564352e+18,4.872107186358099612e-03,8.526187576126675188e-03,3.532277710109622132e-02,3.065717760000000180e-01,-1.532858880000000090e-01,9.657010944000001373e+00
1.691119220192564480e+18,9.744214372716199224e-03,1.096224116930572499e-02,2.801461632155907364e-02,1.532858880000000090e-01,-1.532858880000000090e-01,9.657010944000001373e+00
1.691119220202564352e+18,6.090133982947624515e-03,1.948842874543239845e-02,2.436053593179049806e-02,1.532858880000000090e-01,-3.065717760000000180e-01,9.657010944000001373e+00
1.691119220212564480e+18,1.218026796589524903e-03,9.744214372716199224e-03,3.166869671132764574e-02,-1.532858880000000090e-01,-1.532858880000000090e-01,9.503725056000000393e+00
1.691119220222564352e+18,-4.872107186358099612e-03,8.526187576126675188e-03,3.045066991473812518e-02,4.598576639999999993e-01,-3.065717760000000180e-01,9.657010944000001373e+00
1.691119220232564480e+18,3.654080389768574709e-03,9.744214372716199224e-03,3.410475030450670075e-02,3.065717760000000180e-01,-3.065717760000000180e-01,9.503725056000000393e+00
1.691119220242564352e+18,4.872107186358099612e-03,1.096224116930572499e-02,3.532277710109622132e-02,1.532858880000000090e-01,-1.532858880000000090e-01,9.657010944000001373e+00
1.691119220252564480e+18,1.218026796589524903e-03,1.948842874543239845e-02,2.557856272838002556e-02,3.065717760000000180e-01,-1.532858880000000090e-01,9.503725056000000393e+00
1.691119220262564352e+18,-4.872107186358099612e-03,6.090133982947624515e-03,3.410475030450670075e-02,3.065717760000000180e-01,-1.532858880000000090e-01,9.503725056000000393e+00
1.691119220272564480e+18,-1.218026796589524903e-03,2.436053593179049806e-03,3.045066991473812518e-02,0.000000000000000000e+00,-1.532858880000000090e-01,9.657010944000001373e+00
1.691119220282564352e+18,-4.872107186358099612e-03,3.654080389768574709e-03,2.923264311814859767e-02,1.532858880000000090e-01,-3.065717760000000180e-01,9.503725056000000393e+00
1.691119220292564480e+18,-3.654080389768574709e-03,1.218026796589524903e-02,2.436053593179049806e-02,0.000000000000000000e+00,-3.065717760000000180e-01,9.657010944000001373e+00
1.691119220302564352e+18,4.872107186358099612e-03,8.526187576126675188e-03,2.801461632155907364e-02,3.065717760000000180e-01,-1.532858880000000090e-01,9.503725056000000393e+00
1.691119220312564480e+18,3.654080389768574709e-03,9.744214372716199224e-03,3.045066991473812518e-02,1.532858880000000090e-01,-1.532858880000000090e-01,9.657010944000001373e+00
1.691119220322564352e+18,1.218026796589524903e-03,9.744214372716199224e-03,2.801461632155907364e-02,1.532858880000000090e-01,-1.532858880000000090e-01,9.657010944000001373e+00
1.691119220332564480e+18,0.000000000000000000e+00,8.526187576126675188e-03,3.775883069427527633e-02,0.000000000000000000e+00,0.000000000000000000e+00,9.503725056000000393e+00
1.691119220342564352e+18,7.308160779537149418e-03,1.339829476248477480e-02,3.410475030450670075e-02,3.065717760000000180e-01,-1.532858880000000090e-01,9.657010944000001373e+00
1.691119220352564224e+18,6.090133982947624515e-03,7.308160779537149418e-03,1.948842874543239845e-02,3.065717760000000180e-01,-1.532858880000000090e-01,9.657010944000001373e+00
1.691119220362564352e+18,2.436053593179049806e-03,6.090133982947624515e-03,3.045066991473812518e-02,1.532858880000000090e-01,-1.532858880000000090e-01,9.503725056000000393e+00
1.691119220372564224e+18,3.654080389768574709e-03,7.308160779537149418e-03,2.679658952496954960e-02,4.598576639999999993e-01,-1.532858880000000090e-01,9.657010944000001373e+00
1.691119220382564352e+18,2.436053593179049806e-03,1.948842874543239845e-02,3.045066991473812518e-02,1.532858880000000090e-01,-1.532858880000000090e-01,9.503725056000000393e+00
1.691119220392564224e+18,3.654080389768574709e-03,1.705237515225335038e-02,2.192448233861144999e-02,3.065717760000000180e-01,-1.532858880000000090e-01,9.503725056000000393e+00
1.691119220402564352e+18,1.218026796589524903e-03,8.526187576126675188e-03,3.654080389768574882e-02,3.065717760000000180e-01,-1.532858880000000090e-01,9.963582719999999782e+00
1.691119220412564224e+18,7.308160779537149418e-03,7.308160779537149418e-03,3.897685749086479690e-02,1.532858880000000090e-01,0.000000000000000000e+00,9.657010944000001373e+00
1.691119220422564352e+18,-3.654080389768574709e-03,9.744214372716199224e-03,2.436053593179049806e-02,1.532858880000000090e-01,-1.532858880000000090e-01,9.503725056000000393e+00
1.691119220432564224e+18,7.308160779537149418e-03,1.218026796589524903e-02,3.045066991473812518e-02,3.065717760000000180e-01,-3.065717760000000180e-01,9.350439168000001189e+00
1.691119220442564608e+18,-1.218026796589524903e-02,9.744214372716199224e-03,3.532277710109622132e-02,6.131435520000000361e-01,-1.532858880000000090e-01,9.657010944000001373e+00
1.691119220452564480e+18,4.872107186358099612e-03,3.654080389768574709e-03,2.679658952496954960e-02,1.532858880000000090e-01,-3.065717760000000180e-01,9.657010944000001373e+00
1.691119220462564352e+18,6.090133982947624515e-03,1.583434835566382287e-02,3.654080389768574882e-02,0.000000000000000000e+00,-3.065717760000000180e-01,9.503725056000000393e+00
1.691119220472564480e+18,-6.090133982947624515e-03,7.308160779537149418e-03,3.166869671132764574e-02,4.598576639999999993e-01,-1.532858880000000090e-01,9.503725056000000393e+00
1.691119220482564352e+18,1.218026796589524903e-03,7.308160779537149418e-03,2.557856272838002556e-02,0.000000000000000000e+00,-4.598576639999999993e-01,9.503725056000000393e+00
1.691119220492564480e+18,-1.218026796589524903e-02,1.218026796589524903e-02,3.532277710109622132e-02,1.532858880000000090e-01,-1.532858880000000090e-01,9.503725056000000393e+00
1.691119220502564352e+18,1.218026796589524903e-03,1.339829476248477480e-02,3.045066991473812518e-02,3.065717760000000180e-01,-3.065717760000000180e-01,9.503725056000000393e+00
1.691119220512564480e+18,2.436053593179049806e-03,8.526187576126675188e-03,2.923264311814859767e-02,1.532858880000000090e-01,0.000000000000000000e+00,9.657010944000001373e+00
1.691119220522564352e+18,0.000000000000000000e+00,1.461632155907429884e-02,3.166869671132764574e-02,3.065717760000000180e-01,-3.065717760000000180e-01,9.503725056000000393e+00
1.691119220532564480e+18,8.526187576126675188e-03,3.654080389768574709e-03,2.801461632155907364e-02,1.532858880000000090e-01,-1.532858880000000090e-01,9.657010944000001373e+00
1.691119220542564352e+18,-1.461632155907429884e-02,7.308160779537149418e-03,3.166869671132764574e-02,-1.532858880000000090e-01,-1.532858880000000090e-01,9.503725056000000393e+00
1.691119220552564480e+18,6.090133982947624515e-03,1.339829476248477480e-02,3.045066991473812518e-02,1.532858880000000090e-01,-1.532858880000000090e-01,9.503725056000000393e+00
1.691119220562564352e+18,-3.654080389768574709e-03,1.096224116930572499e-02,3.166869671132764574e-02,1.532858880000000090e-01,-1.532858880000000090e-01,9.350439168000001189e+00
1.691119220572564480e+18,1.218026796589524903e-02,6.090133982947624515e-03,2.070645554202192595e-02,1.532858880000000090e-01,-3.065717760000000180e-01,9.503725056000000393e+00
1.691119220582564352e+18,1.218026796589524903e-03,1.339829476248477480e-02,3.045066991473812518e-02,3.065717760000000180e-01,-1.532858880000000090e-01,9.503725056000000393e+00
1.691119220592564224e+18,7.308160779537149418e-03,8.526187576126675188e-03,2.557856272838002556e-02,3.065717760000000180e-01,-1.532858880000000090e-01,9.503725056000000393e+00
1.691119220602564352e+18,-2.436053593179049806e-03,4.872107186358099612e-03,2.679658952496954960e-02,-1.532858880000000090e-01,-1.532858880000000090e-01,9.657010944000001373e+00
1.691119220612564224e+18,-3.654080389768574709e-03,1.583434835566382287e-02,2.679658952496954960e-02,0.000000000000000000e+00,-1.532858880000000090e-01,9.657010944000001373e+00
1.691119220622564352e+18,3.654080389768574709e-03,8.526187576126675188e-03,3.288672350791717325e-02,3.065717760000000180e-01,-1.532858880000000090e-01,9.657010944000001373e+00
1.691119220632564224e+18,3.654080389768574709e-03,1.096224116930572499e-02,2.436053593179049806e-02,1.532858880000000090e-01,0.000000000000000000e+00,9.503725056000000393e+00
1.691119220642564352e+18,8.526187576126675188e-03,1.339829476248477480e-02,3.045066991473812518e-02,3.065717760000000180e-01,-3.065717760000000180e-01,9.503725056000000393e+00
1.691119220652564224e+18,-2.436053593179049806e-03,6.090133982947624515e-03,3.288672350791717325e-02,0.000000000000000000e+00,-1.532858880000000090e-01,9.503725056000000393e+00
1.691119220662564352e+18,-3.654080389768574709e-03,1.461632155907429884e-02,2.192448233861144999e-02,6.131435520000000361e-01,-1.532858880000000090e-01,9.657010944000001373e+00
1.691119220672564224e+18,-7.308160779537149418e-03,1.583434835566382287e-02,3.045066991473812518e-02,0.000000000000000000e+00,-1.532858880000000090e-01,9.503725056000000393e+00
1.691119220682564352e+18,-1.218026796589524903e-03,7.308160779537149418e-03,2.679658952496954960e-02,3.065717760000000180e-01,-1.532858880000000090e-01,9.503725056000000393e+00
1.691119220692564480e+18,3.654080389768574709e-03,9.744214372716199224e-03,3.166869671132764574e-02,1.532858880000000090e-01,-3.065717760000000180e-01,9.503725056000000393e+00
1.691119220702564352e+18,-8.526187576126675188e-03,4.872107186358099612e-03,2.923264311814859767e-02,3.065717760000000180e-01,-1.532858880000000090e-01,9.657010944000001373e+00
1.691119220712564480e+18,-1.218026796589524903e-03,7.308160779537149418e-03,2.923264311814859767e-02,1.532858880000000090e-01,-3.065717760000000180e-01,9.503725056000000393e+00
1.691119220722564352e+18,-1.218026796589524903e-03,7.308160779537149418e-03,2.923264311814859767e-02,1.532858880000000090e-01,-3.065717760000000180e-01,9.503725056000000393e+00
1.691119220732564480e+18,1.218026796589524903e-02,6.090133982947624515e-03,2.679658952496954960e-02,1.532858880000000090e-01,-1.532858880000000090e-01,9.503725056000000393e+00
1.691119220742564352e+18,-2.436053593179049806e-03,1.096224116930572499e-02,2.923264311814859767e-02,3.065717760000000180e-01,-1.532858880000000090e-01,9.657010944000001373e+00
1.691119220752564480e+18,3.654080389768574709e-03,8.526187576126675188e-03,2.923264311814859767e-02,1.532858880000000090e-01,-1.532858880000000090e-01,9.657010944000001373e+00
1.691119220762564352e+18,-7.308160779537149418e-03,6.090133982947624515e-03,3.045066991473812518e-02,3.065717760000000180e-01,-3.065717760000000180e-01,9.810296832000000578e+00
1.691119220772564480e+18,1.218026796589524903e-03,4.872107186358099612e-03,2.923264311814859767e-02,1.532858880000000090e-01,-1.532858880000000090e-01,9.503725056000000393e+00
1.691119220782564352e+18,6.090133982947624515e-03,7.308160779537149418e-03,3.288672350791717325e-02,4.598576639999999993e-01,-1.532858880000000090e-01,9.503725056000000393e+00
1.691119220792564480e+18,8.526187576126675188e-03,7.308160779537149418e-03,2.801461632155907364e-02,3.065717760000000180e-01,-1.532858880000000090e-01,9.503725056000000393e+00
1.691119220802564352e+18,-3.654080389768574709e-03,1.218026796589524903e-03,3.166869671132764574e-02,1.532858880000000090e-01,-1.532858880000000090e-01,9.503725056000000393e+00
1.691119220812564480e+18,3.654080389768574709e-03,1.218026796589524903e-02,3.410475030450670075e-02,3.065717760000000180e-01,-3.065717760000000180e-01,9.350439168000001189e+00
1.691119220822564352e+18,8.526187576126675188e-03,1.339829476248477480e-02,2.314250913520097402e-02,0.000000000000000000e+00,-1.532858880000000090e-01,9.503725056000000393e+00
1.691119220832564480e+18,-6.090133982947624515e-03,1.218026796589524903e-02,2.192448233861144999e-02,4.598576639999999993e-01,-1.532858880000000090e-01,9.350439168000001189e+00
1.691119220842564352e+18,4.872107186358099612e-03,1.096224116930572499e-02,3.410475030450670075e-02,3.065717760000000180e-01,-3.065717760000000180e-01,9.503725056000000393e+00
1.691119220852564224e+18,7.308160779537149418e-03,1.583434835566382287e-02,3.166869671132764574e-02,1.532858880000000090e-01,-1.532858880000000090e-01,9.657010944000001373e+00
1.691119220862564352e+18,9.744214372716199224e-03,1.583434835566382287e-02,2.679658952496954960e-02,3.065717760000000180e-01,-1.532858880000000090e-01,9.503725056000000393e+00
1.691119220872564224e+18,3.654080389768574709e-03,-1.218026796589524903e-03,2.557856272838002556e-02,0.000000000000000000e+00,-1.532858880000000090e-01,9.503725056000000393e+00
1.691119220882564352e+18,9.744214372716199224e-03,1.096224116930572499e-02,2.679658952496954960e-02,1.532858880000000090e-01,-1.532858880000000090e-01,9.350439168000001189e+00
1.691119220892564224e+18,-1.218026796589524903e-03,-1.218026796589524903e-03,3.532277710109622132e-02,3.065717760000000180e-01,-1.532858880000000090e-01,9.657010944000001373e+00
1.691119220902564352e+18,3.654080389768574709e-03,1.096224116930572499e-02,2.314250913520097402e-02,3.065717760000000180e-01,-3.065717760000000180e-01,9.657010944000001373e+00
1.691119220912564224e+18,2.436053593179049806e-03,6.090133982947624515e-03,3.654080389768574882e-02,1.532858880000000090e-01,-1.532858880000000090e-01,9.503725056000000393e+00
1.691119220922564352e+18,0.000000000000000000e+00,0.000000000000000000e+00,2.436053593179049806e-02,-1.532858880000000090e-01,-1.532858880000000090e-01,9.503725056000000393e+00
1.691119220932564224e+18,3.654080389768574709e-03,1.096224116930572499e-02,3.532277710109622132e-02,3.065717760000000180e-01,-3.065717760000000180e-01,9.657010944000001373e+00
1.691119220942564608e+18,0.000000000000000000e+00,3.654080389768574709e-03,2.923264311814859767e-02,3.065717760000000180e-01,-1.532858880000000090e-01,9.657010944000001373e+00
1.691119220952564480e+18,4.872107186358099612e-03,9.744214372716199224e-03,3.775883069427527633e-02,3.065717760000000180e-01,-1.532858880000000090e-01,9.657010944000001373e+00
1.691119220962564352e+18,-7.308160779537149418e-03,8.526187576126675188e-03,2.923264311814859767e-02,1.532858880000000090e-01,-3.065717760000000180e-01,9.657010944000001373e+00
1.691119220972564480e+18,2.436053593179049806e-03,1.461632155907429884e-02,2.557856272838002556e-02,4.598576639999999993e-01,-3.065717760000000180e-01,9.657010944000001373e+00
1.691119220982564352e+18,1.218026796589524903e-03,9.744214372716199224e-03,2.314250913520097402e-02,3.065717760000000180e-01,-1.532858880000000090e-01,9.503725056000000393e+00
1.691119220992564480e+18,2.436053593179049806e-03,9.744214372716199224e-03,2.314250913520097402e-02,3.065717760000000180e-01,-1.532858880000000090e-01,9.503725056000000393e+00
1.691119221002564352e+18,-1.218026796589524903e-03,1.096224116930572499e-02,3.532277710109622132e-02,0.000000000000000000e+00,-3.065717760000000180e-01,9.503725056000000393e+00
1.691119221012564480e+18,1.218026796589524903e-03,1.339829476248477480e-02,2.679658952496954960e-02,0.000000000000000000e+00,-3.065717760000000180e-01,9.503725056000000393e+00
1.691119221022564352e+18,-8.526187576126675188e-03,1.096224116930572499e-02,2.436053593179049806e-02,3.065717760000000180e-01,-3.065717760000000180e-01,9.657010944000001373e+00
1.691119221032564480e+18,-1.218026796589524903e-03,9.744214372716199224e-03,2.801461632155907364e-02,3.065717760000000180e-01,-1.532858880000000090e-01,9.503725056000000393e+00
1.691119221042564352e+18,6.090133982947624515e-03,1.583434835566382287e-02,2.679658952496954960e-02,3.065717760000000180e-01,-1.532858880000000090e-01,9.503725056000000393e+00
1.691119221052564480e+18,-1.218026796589524903e-03,1.218026796589524903e-02,2.923264311814859767e-02,4.598576639999999993e-01,-1.532858880000000090e-01,9.657010944000001373e+00
1.691119221062564352e+18,3.654080389768574709e-03,1.461632155907429884e-02,2.679658952496954960e-02,3.065717760000000180e-01,-1.532858880000000090e-01,9.657010944000001373e+00
1.691119221072564480e+18,-2.436053593179049806e-03,1.583434835566382287e-02,3.045066991473812518e-02,1.073001215999999980e+00,-1.532858880000000090e-01,9.503725056000000393e+00
1.691119221082564352e+18,-4.872107186358099612e-03,1.339829476248477480e-02,2.923264311814859767e-02,3.065717760000000180e-01,-1.532858880000000090e-01,9.657010944000001373e+00
1.691119221092564224e+18,-3.654080389768574709e-03,1.827040194884287441e-02,2.801461632155907364e-02,1.379572992000000164e+00,-1.532858880000000090e-01,9.963582719999999782e+00
1.691119221102564352e+18,-7.308160779537149418e-03,1.705237515225335038e-02,3.654080389768574882e-02,7.664294400000000174e-01,-1.532858880000000090e-01,9.503725056000000393e+00
1.691119221112564224e+18,-8.526187576126675188e-03,1.948842874543239845e-02,3.045066991473812518e-02,6.131435520000000361e-01,0.000000000000000000e+00,9.657010944000001373e+00
1.691119221122564352e+18,2.436053593179049806e-03,1.096224116930572499e-02,3.045066991473812518e-02,6.131435520000000361e-01,-1.532858880000000090e-01,9.503725056000000393e+00
1.691119221132564224e+18,0.000000000000000000e+00,1.583434835566382287e-02,4.019488428745432440e-02,6.131435520000000361e-01,-1.532858880000000090e-01,9.657010944000001373e+00
1.691119221142564352e+18,3.654080389768574709e-03,1.461632155907429884e-02,2.801461632155907364e-02,6.131435520000000361e-01,-1.532858880000000090e-01,9.350439168000001189e+00
1.691119221152564224e+18,3.654080389768574709e-03,2.801461632155907364e-02,4.506699147381242054e-02,9.197153279999999986e-01,0.000000000000000000e+00,9.657010944000001373e+00
1.691119221162564352e+18,0.000000000000000000e+00,2.314250913520097402e-02,5.602923264311814727e-02,1.073001215999999980e+00,0.000000000000000000e+00,9.657010944000001373e+00
1.691119221172564224e+18,2.436053593179049806e-03,2.070645554202192595e-02,6.699147381242387400e-02,9.197153279999999986e-01,-1.532858880000000090e-01,9.657010944000001373e+00
1.691119221182564352e+18,-3.654080389768574709e-03,2.436053593179049806e-02,6.942752740560292901e-02,1.073001215999999980e+00,0.000000000000000000e+00,9.657010944000001373e+00
1.691119221192564480e+18,0.000000000000000000e+00,2.557856272838002556e-02,9.013398294762484109e-02,7.664294400000000174e-01,1.532858880000000090e-01,9.503725056000000393e+00
1.691119221202564352e+18,-9.744214372716199224e-03,9.744214372716199224e-03,9.622411693057247861e-02,9.197153279999999986e-01,0.000000000000000000e+00,9.503725056000000393e+00
1.691119221212564480e+18,9.744214372716199224e-03,1.827040194884287441e-02,1.144945188794153496e-01,9.197153279999999986e-01,1.532858880000000090e-01,9.503725056000000393e+00
1.691119221222564352e+18,-1.096224116930572499e-02,4.872107186358099612e-03,1.315468940316686930e-01,4.598576639999999993e-01,3.065717760000000180e-01,9.657010944000001373e+00
1.691119221232564480e+18,-8.526187576126675188e-03,1.339829476248477480e-02,1.425091352009744128e-01,1.073001215999999980e+00,1.532858880000000090e-01,9.657010944000001373e+00
1.691119221242564352e+18,-1.583434835566382287e-02,2.436053593179049806e-03,1.607795371498172976e-01,7.664294400000000174e-01,1.532858880000000090e-01,9.503725056000000393e+00
1.691119221252564480e+18,-1.218026796589524903e-03,8.526187576126675188e-03,1.693057247259439624e-01,1.379572992000000164e+00,0.000000000000000000e+00,9.350439168000001189e+00
1.691119221262564352e+18,-6.090133982947624515e-03,0.000000000000000000e+00,1.997563946406820945e-01,7.664294400000000174e-01,1.532858880000000090e-01,9.657010944000001373e+00
1.691119221272564480e+18,7.308160779537149418e-03,2.436053593179049806e-03,2.192448233861145068e-01,9.197153279999999986e-01,0.000000000000000000e+00,9.810296832000000578e+00
1.691119221282564352e+18,-1.096224116930572499e-02,4.872107186358099612e-03,2.362971985383678364e-01,7.664294400000000174e-01,0.000000000000000000e+00,9.503725056000000393e+00
1.691119221292564480e+18,-4.872107186358099612e-03,-2.436053593179049806e-03,2.496954933008526112e-01,1.073001215999999980e+00,0.000000000000000000e+00,9.657010944000001373e+00
1.691119221302564352e+18,-6.090133982947624515e-03,6.090133982947624515e-03,2.655298416565164410e-01,1.073001215999999980e+00,1.532858880000000090e-01,9.503725056000000393e+00
1.691119221312564480e+18,6.090133982947624515e-03,8.526187576126675188e-03,2.691839220462849958e-01,1.073001215999999980e+00,1.532858880000000090e-01,9.503725056000000393e+00
1.691119221322564352e+18,6.090133982947624515e-03,3.654080389768574709e-03,2.911084043848964908e-01,1.379572992000000164e+00,0.000000000000000000e+00,9.350439168000001189e+00
1.691119221332564480e+18,0.000000000000000000e+00,4.872107186358099612e-03,2.935444579780754903e-01,7.664294400000000174e-01,-3.065717760000000180e-01,9.657010944000001373e+00
1.691119221342564352e+18,9.744214372716199224e-03,1.096224116930572499e-02,2.996345919610231556e-01,6.131435520000000361e-01,0.000000000000000000e+00,9.503725056000000393e+00
1.691119221352564224e+18,3.654080389768574709e-03,9.744214372716199224e-03,3.093788063337393202e-01,6.131435520000000361e-01,0.000000000000000000e+00,9.503725056000000393e+00
1.691119221362564352e+18,1.461632155907429884e-02,3.654080389768574709e-03,2.898903775883069356e-01,6.131435520000000361e-01,-1.532858880000000090e-01,9.503725056000000393e+00
1.691119221372564224e+18,3.654080389768574709e-03,1.096224116930572499e-02,2.862362971985383808e-01,-1.532858880000000090e-01,-3.065717760000000180e-01,9.810296832000000578e+00
1.691119221382564352e+18,1.583434835566382287e-02,1.339829476248477480e-02,2.618757612667478862e-01,4.598576639999999993e-01,-6.131435520000000361e-01,9.503725056000000393e+00
1.691119221392564224e+18,9.744214372716199224e-03,-2.436053593179049806e-02,2.314250913520097541e-01,-2.912431871999999977e+00,-1.226287104000000072e+00,9.043867392000001004e+00
1.691119221402564352e+18,1.339829476248477480e-02,1.461632155907429884e-02,1.985383678440925670e-01,7.664294400000000174e-01,-3.065717760000000180e-01,1.027015449599999997e+01
1.691119221412564224e+18,9.744214372716199224e-03,-3.654080389768574709e-03,1.632155907429963526e-01,-7.664294400000000174e-01,-6.131435520000000361e-01,9.197153280000000208e+00
1.691119221422564352e+18,9.744214372716199224e-03,-3.654080389768574709e-03,1.218026796589525007e-01,-1.226287104000000072e+00,-7.664294400000000174e-01,9.197153280000000208e+00
1.691119221432564224e+18,2.314250913520097402e-02,-6.090133982947624515e-03,6.455542021924481899e-02,-4.598576639999999993e-01,-6.131435520000000361e-01,9.810296832000000578e+00
1.691119221442564608e+18,1.096224116930572499e-02,-9.744214372716199224e-03,2.070645554202192595e-02,-4.598576639999999993e-01,-7.664294400000000174e-01,9.503725056000000393e+00
1.691119221452564480e+18,6.090133982947624515e-03,-2.436053593179049806e-03,7.308160779537149418e-03,3.065717760000000180e-01,-4.598576639999999993e-01,9.657010944000001373e+00
1.691119221462564352e+18,0.000000000000000000e+00,-1.461632155907429884e-02,-3.654080389768574882e-02,-6.131435520000000361e-01,-3.065717760000000180e-01,9.503725056000000393e+00
1.691119221472564480e+18,1.218026796589524903e-03,-1.218026796589524903e-02,-5.846528623629719534e-02,-9.197153279999999986e-01,-1.532858880000000090e-01,9.503725056000000393e+00
1.691119221482564352e+18,-1.218026796589524903e-03,-1.461632155907429884e-02,-7.064555420219244264e-02,-6.131435520000000361e-01,-3.065717760000000180e-01,9.657010944000001373e+00
1.691119221492564480e+18,-1.218026796589524903e-03,-9.744214372716199224e-03,-9.135200974421436859e-02,-1.226287104000000072e+00,-3.065717760000000180e-01,9.350439168000001189e+00
1.691119221502564352e+18,-6.090133982947624515e-03,-1.218026796589524903e-02,-1.023142509135201023e-01,-1.532858880000000035e+00,0.000000000000000000e+00,9.503725056000000393e+00
1.691119221512564480e+18,-7.308160779537149418e-03,-1.339829476248477480e-02,-1.059683313032886709e-01,-3.065717760000000180e-01,-3.065717760000000180e-01,9.810296832000000578e+00
1.691119221522564352e+18,-8.526187576126675188e-03,-3.654080389768574709e-03,-1.144945188794153496e-01,-4.598576639999999993e-01,0.000000000000000000e+00,9.197153280000000208e+00
1.691119221532564480e+18,-1.461632155907429884e-02,-3.654080389768574709e-03,-9.866017052375151974e-02,-1.532858880000000035e+00,-1.532858880000000090e-01,9.657010944000001373e+00
1.691119221542564352e+18,0.000000000000000000e+00,0.000000000000000000e+00,-9.257003654080389610e-02,-1.532858880000000090e-01,-1.532858880000000090e-01,9.657010944000001373e+00
1.691119221552564480e+18,-6.090133982947624515e-03,1.096224116930572499e-02,-9.013398294762484109e-02,-4.598576639999999993e-01,-1.532858880000000090e-01,9.350439168000001189e+00
1.691119221562564352e+18,4.872107186358099612e-03,9.744214372716199224e-03,-6.090133982947625035e-02,-7.664294400000000174e-01,-1.532858880000000090e-01,9.657010944000001373e+00
1.691119221572564480e+18,0.000000000000000000e+00,2.070645554202192595e-02,-6.211936662606577092e-02,-1.532858880000000090e-01,-1.532858880000000090e-01,9.810296832000000578e+00
1.691119221582564352e+18,1.218026796589524903e-03,1.948842874543239845e-02,-4.019488428745432440e-02,-7.664294400000000174e-01,1.532858880000000090e-01,9.657010944000001373e+00
1.691119221592564224e+18,7.308160779537149418e-03,1.948842874543239845e-02,-1.218026796589524903e-02,-7.664294400000000174e-01,1.532858880000000090e-01,9.657010944000001373e+00
1.691119221602564352e+18,6.090133982947624515e-03,3.410475030450670075e-02,4.872107186358099612e-03,0.000000000000000000e+00,1.532858880000000090e-01,9.503725056000000393e+00
1.691119221612564224e+18,7.308160779537149418e-03,3.532277710109622132e-02,4.384896467722289998e-02,0.000000000000000000e+00,1.532858880000000090e-01,9.657010944000001373e+00
1.691119221622564352e+18,0.000000000000000000e+00,4.628501827040194805e-02,6.820950060901340151e-02,0.000000000000000000e+00,0.000000000000000000e+00,9.810296832000000578e+00
1.691119221632564224e+18,0.000000000000000000e+00,4.750304506699147555e-02,6.942752740560292901e-02,4.598576639999999993e-01,0.000000000000000000e+00,9.350439168000001189e+00
1.691119221642564352e+18,0.000000000000000000e+00,3.654080389768574882e-02,9.013398294762484109e-02,1.532858880000000090e-01,4.598576639999999993e-01,9.810296832000000578e+00
1.691119221652564224e+18,-2.436053593179049806e-03,5.237515225334957170e-02,1.084043848964677259e-01,4.598576639999999993e-01,3.065717760000000180e-01,9.657010944000001373e+00
1.691119221662564352e+18,-4.872107186358099612e-03,5.968331303288672285e-02,1.278928136419001105e-01,3.065717760000000180e-01,0.000000000000000000e+00,9.350439168000001189e+00
1.691119221672564224e+18,1.096224116930572499e-02,5.115712545676005113e-02,1.376370280146163305e-01,1.073001215999999980e+00,-3.065717760000000180e-01,9.810296832000000578e+00
1.691119221682564352e+18,-8.526187576126675188e-03,4.141291108404385191e-02,1.157125456760048771e-01,9.197153279999999986e-01,-1.532858880000000090e-01,8.890581504000000024e+00
1.691119221692564480e+18,-6.090133982947624515e-03,8.647990255785627245e-02,1.181485992691839182e-01,1.992716544000000090e+00,-1.532858880000000090e-01,9.810296832000000578e+00
1.691119221702564352e+18,-1.218026796589524903e-02,8.404384896467721744e-02,1.364190012180268030e-01,6.131435520000000361e-01,-1.532858880000000090e-01,9.503725056000000393e+00
1.691119221712564480e+18,3.654080389768574709e-03,3.532277710109622132e-02,1.230207064555420282e-01,1.379572992000000164e+00,0.000000000000000000e+00,9.350439168000001189e+00
1.691119221722564352e+18,-6.090133982947624515e-03,3.288672350791717325e-02,1.303288672350791655e-01,7.664294400000000174e-01,-3.065717760000000180e-01,9.197153280000000208e+00
1.691119221732564480e+18,-1.218026796589524903e-02,3.410475030450670075e-02,1.364190012180268030e-01,1.226287104000000072e+00,-3.065717760000000180e-01,9.503725056000000393e+00
1.691119221742564352e+18,0.000000000000000000e+00,2.314250913520097402e-02,1.388550548112058580e-01,9.197153279999999986e-01,-3.065717760000000180e-01,9.503725056000000393e+00
1.691119221752564480e+18,-3.654080389768574709e-03,1.827040194884287441e-02,1.230207064555420282e-01,6.131435520000000361e-01,-3.065717760000000180e-01,9.197153280000000208e+00
1.691119221762564352e+18,4.872107186358099612e-03,1.218026796589524903e-02,1.315468940316686930e-01,1.073001215999999980e+00,-1.532858880000000090e-01,9.043867392000001004e+00
1.691119221772564480e+18,-4.872107186358099612e-03,2.436053593179049806e-03,1.352009744214372755e-01,1.073001215999999980e+00,0.000000000000000000e+00,9.503725056000000393e+00
1.691119221782564352e+18,-6.090133982947624515e-03,-1.218026796589524903e-03,1.437271619975639403e-01,6.131435520000000361e-01,0.000000000000000000e+00,9.350439168000001189e+00
1.691119221792564480e+18,-9.744214372716199224e-03,-3.654080389768574709e-03,1.437271619975639403e-01,1.379572992000000164e+00,-3.065717760000000180e-01,9.503725056000000393e+00
1.691119221802564352e+18,9.744214372716199224e-03,-9.744214372716199224e-03,1.400730816077953578e-01,1.073001215999999980e+00,-4.598576639999999993e-01,9.503725056000000393e+00
1.691119221812564480e+18,7.308160779537149418e-03,-1.705237515225335038e-02,1.352009744214372755e-01,1.686144768000000127e+00,-4.598576639999999993e-01,9.503725056000000393e+00
1.691119221822564352e+18,4.872107186358099612e-03,-1.583434835566382287e-02,1.181485992691839182e-01,1.226287104000000072e+00,-6.131435520000000361e-01,9.657010944000001373e+00
1.691119221832564480e+18,6.090133982947624515e-03,-1.218026796589524903e-03,1.218026796589525007e-01,1.226287104000000072e+00,-3.065717760000000180e-01,9.810296832000000578e+00
1.691119221842564352e+18,1.461632155907429884e-02,1.218026796589524903e-03,1.193666260657734457e-01,1.686144768000000127e+00,-1.532858880000000090e-01,9.657010944000001373e+00
1.691119221852564224e+18,1.461632155907429884e-02,6.090133982947624515e-03,1.169305724725943907e-01,1.839430655999999997e+00,0.000000000000000000e+00,9.657010944000001373e+00
1.691119221862564352e+18,1.218026796589524903e-03,7.308160779537149418e-03,1.218026796589525007e-01,1.686144768000000127e+00,0.000000000000000000e+00,9.503725056000000393e+00
1.691119221872564224e+18,6.090133982947624515e-03,1.218026796589524903e-02,1.291108404384896380e-01,1.992716544000000090e+00,0.000000000000000000e+00,9.657010944000001373e+00
1.691119221882564352e+18,-1.218026796589524903e-02,1.827040194884287441e-02,1.303288672350791655e-01,1.532858880000000035e+00,0.000000000000000000e+00,9.657010944000001373e+00
1.691119221892564224e+18,9.744214372716199224e-03,2.070645554202192595e-02,1.376370280146163305e-01,1.379572992000000164e+00,0.000000000000000000e+00,9.657010944000001373e+00
1.691119221902564352e+18,-1.339829476248477480e-02,3.288672350791717325e-02,1.388550548112058580e-01,1.532858880000000035e+00,0.000000000000000000e+00,9.657010944000001373e+00
1.691119221912564224e+18,-1.461632155907429884e-02,3.897685749086479690e-02,1.485992691839220503e-01,1.379572992000000164e+00,1.532858880000000090e-01,9.503725056000000393e+00
1.691119221922564352e+18,-1.218026796589524903e-02,3.532277710109622132e-02,1.705237515225334899e-01,1.532858880000000035e+00,0.000000000000000000e+00,9.350439168000001189e+00
1.691119221932564224e+18,-8.526187576126675188e-03,2.314250913520097402e-02,1.717417783191230174e-01,1.073001215999999980e+00,1.532858880000000090e-01,9.350439168000001189e+00
1.691119221942564608e+18,-9.744214372716199224e-03,2.557856272838002556e-02,1.936662606577344570e-01,1.226287104000000072e+00,0.000000000000000000e+00,9.503725056000000393e+00
1.691119221952564480e+18,-9.744214372716199224e-03,2.801461632155907364e-02,1.936662606577344570e-01,9.197153279999999986e-01,-1.532858880000000090e-01,9.657010944000001373e+00
1.691119221962564352e+18,-1.218026796589524903e-02,3.045066991473812518e-02,2.119366626065773418e-01,1.226287104000000072e+00,-1.532858880000000090e-01,9.197153280000000208e+00
1.691119221972564480e+18,-8.526187576126675188e-03,1.948842874543239845e-02,2.082825822168087593e-01,1.226287104000000072e+00,-3.065717760000000180e-01,9.503725056000000393e+00
1.691119221982564352e+18,-8.526187576126675188e-03,9.744214372716199224e-03,2.046285018270402045e-01,1.226287104000000072e+00,-1.532858880000000090e-01,9.503725056000000393e+00
1.691119221992564480e+18,3.654080389768574709e-03,9.744214372716199224e-03,2.009744214372716220e-01,1.532858880000000035e+00,0.000000000000000000e+00,9.503725056000000393e+00
1.691119222002564352e+18,6.090133982947624515e-03,1.218026796589524903e-02,2.168087697929354518e-01,1.379572992000000164e+00,-3.065717760000000180e-01,9.503725056000000393e+00
1.691119222012564480e+18,-1.218026796589524903e-03,1.218026796589524903e-03,2.192448233861145068e-01,9.197153279999999986e-01,-1.532858880000000090e-01,9.350439168000001189e+00
1.691119222022564352e+18,4.872107186358099612e-03,-7.308160779537149418e-03,2.265529841656516441e-01,1.073001215999999980e+00,-3.065717760000000180e-01,9.657010944000001373e+00
1.691119222032564480e+18,9.744214372716199224e-03,3.654080389768574709e-03,2.192448233861145068e-01,1.379572992000000164e+00,-1.532858880000000090e-01,9.503725056000000393e+00
1.691119222042564352e+18,1.218026796589524903e-02,-1.218026796589524903e-03,2.253349573690621166e-01,9.197153279999999986e-01,-3.065717760000000180e-01,9.350439168000001189e+00
1.691119222052564480e+18,7.308160779537149418e-03,-8.526187576126675188e-03,2.265529841656516441e-01,9.197153279999999986e-01,0.000000000000000000e+00,9.350439168000001189e+00
1.691119222062564352e+18,7.308160779537149418e-03,-4.872107186358099612e-03,2.228989037758830616e-01,1.379572992000000164e+00,-1.532858880000000090e-01,9.503725056000000393e+00
1.691119222072564480e+18,1.705237515225335038e-02,-1.218026796589524903e-03,2.204628501827040066e-01,1.073001215999999980e+00,0.000000000000000000e+00,9.657010944000001373e+00
1.691119222082564352e+18,-1.218026796589524903e-03,0.000000000000000000e+00,2.204628501827040066e-01,1.532858880000000035e+00,0.000000000000000000e+00,9.503725056000000393e+00
1.691119222092564224e+18,8.526187576126675188e-03,-4.872107186358099612e-03,2.326431181485992816e-01,6.131435520000000361e-01,-1.532858880000000090e-01,9.810296832000000578e+00
1.691119222102564352e+18,7.308160779537149418e-03,7.308160779537149418e-03,2.375152253349573639e-01,1.379572992000000164e+00,-1.532858880000000090e-01,9.810296832000000578e+00
1.691119222112564224e+18,-1.218026796589524903e-03,1.705237515225335038e-02,2.168087697929354518e-01,1.532858880000000035e+00,-1.532858880000000090e-01,9.810296832000000578e+00
1.691119222122564352e+18,-3.654080389768574709e-03,9.744214372716199224e-03,2.204628501827040066e-01,1.073001215999999980e+00,-1.532858880000000090e-01,9.810296832000000578e+00
1.691119222132564224e+18,-1.218026796589524903e-03,2.679658952496954960e-02,2.155907429963459243e-01,4.598576639999999993e-01,0.000000000000000000e+00,9.657010944000001373e+00
1.691119222142564352e+18,-9.744214372716199224e-03,2.801461632155907364e-02,2.314250913520097541e-01,1.226287104000000072e+00,1.532858880000000090e-01,9.350439168000001189e+00
1.691119222152564224e+18,-4.872107186358099612e-03,2.070645554202192595e-02,2.289890377588306991e-01,1.532858880000000035e+00,-3.065717760000000180e-01,9.350439168000001189e+00
1.691119222162564352e+18,7.308160779537149418e-03,2.314250913520097402e-02,2.155907429963459243e-01,7.664294400000000174e-01,-1.532858880000000090e-01,9.810296832000000578e+00
1.691119222172564224e+18,-6.090133982947624515e-03,8.526187576126675188e-03,2.155907429963459243e-01,7.664294400000000174e-01,-3.065717760000000180e-01,9.810296832000000578e+00
1.691119222182564352e+18,4.872107186358099612e-03,1.218026796589524903e-02,1.973203410475030395e-01,1.532858880000000035e+00,-3.065717760000000180e-01,9.503725056000000393e+00
1.691119222192564480e+18,3.654080389768574709e-03,8.526187576126675188e-03,1.997563946406820945e-01,4.598576639999999993e-01,0.000000000000000000e+00,9.657010944000001373e+00
1.691119222202564352e+18,4.872107186358099612e-03,1.339829476248477480e-02,2.095006090133982868e-01,7.664294400000000174e-01,0.000000000000000000e+00,9.810296832000000578e+00
1.691119222212564480e+18,1.218026796589524903e-03,2.314250913520097402e-02,1.997563946406820945e-01,6.131435520000000361e-01,-1.532858880000000090e-01,9.657010944000001373e+00
1.691119222222564352e+18,0.000000000000000000e+00,4.141291108404385191e-02,1.924482338611449572e-01,7.664294400000000174e-01,-3.065717760000000180e-01,9.197153280000000208e+00
1.691119222232564480e+18,-4.872107186358099612e-03,6.090133982947624515e-03,1.802679658952496822e-01,9.197153279999999986e-01,-3.065717760000000180e-01,9.043867392000001004e+00
1.691119222242564352e+18,-1.583434835566382287e-02,-4.872107186358099612e-03,1.668696711327649074e-01,6.131435520000000361e-01,0.000000000000000000e+00,9.503725056000000393e+00
1.691119222252564480e+18,4.872107186358099612e-03,-9.744214372716199224e-03,1.644336175395858801e-01,6.131435520000000361e-01,-4.598576639999999993e-01,9.810296832000000578e+00
1.691119222262564352e+18,-3.654080389768574709e-03,0.000000000000000000e+00,1.595615103532277701e-01,3.065717760000000180e-01,-3.065717760000000180e-01,9.963582719999999782e+00
1.691119222272564480e+18,-2.436053593179049806e-03,-4.872107186358099612e-03,1.437271619975639403e-01,4.598576639999999993e-01,-7.664294400000000174e-01,9.657010944000001373e+00
1.691119222282564352e+18,-3.654080389768574709e-03,-1.218026796589524903e-02,1.205846528623629732e-01,9.197153279999999986e-01,-4.598576639999999993e-01,9.043867392000001004e+00
1.691119222292564480e+18,1.218026796589524903e-03,-2.557856272838002556e-02,1.071863580998781984e-01,4.598576639999999993e-01,-4.598576639999999993e-01,9.350439168000001189e+00
1.691119222302564352e+18,-1.218026796589524903e-03,-9.744214372716199224e-03,8.160779537149817631e-02,0.000000000000000000e+00,-6.131435520000000361e-01,9.503725056000000393e+00
1.691119222312564480e+18,4.872107186358099612e-03,2.436053593179049806e-03,5.237515225334957170e-02,1.532858880000000090e-01,-4.598576639999999993e-01,9.657010944000001373e+00
1.691119222322564352e+18,-1.218026796589524903e-03,-7.308160779537149418e-03,4.141291108404385191e-02,4.598576639999999993e-01,-6.131435520000000361e-01,9.350439168000001189e+00
1.691119222332564480e+18,1.218026796589524903e-02,-3.532277710109622132e-02,1.583434835566382287e-02,3.065717760000000180e-01,-9.197153279999999986e-01,9.810296832000000578e+00
1.691119222342564352e+18,1.461632155907429884e-02,-1.948842874543239845e-02,-1.461632155907429884e-02,1.532858880000000090e-01,-6.131435520000000361e-01,9.350439168000001189e+00
1.691119222352564224e+18,7.308160779537149418e-03,-2.436053593179049806e-03,-3.654080389768574882e-02,4.598576639999999993e-01,-6.131435520000000361e-01,9.503725056000000393e+00
1.691119222362564352e+18,0.000000000000000000e+00,8.526187576126675188e-03,-5.602923264311814727e-02,0.000000000000000000e+00,-1.532858880000000090e-01,9.503725056000000393e+00
1.691119222372564224e+18,3.654080389768574709e-03,1.948842874543239845e-02,-7.064555420219244264e-02,1.532858880000000090e-01,-6.131435520000000361e-01,9.810296832000000578e+00
1.691119222382564352e+18,1.339829476248477480e-02,1.461632155907429884e-02,-1.059683313032886709e-01,-6.131435520000000361e-01,0.000000000000000000e+00,8.890581504000000024e+00
1.691119222392564224e+18,4.872107186358099612e-03,-1.339829476248477480e-02,-1.010962241169305748e-01,3.065717760000000180e-01,-1.532858880000000090e-01,9.810296832000000578e+00
1.691119222402564352e+18,3.654080389768574709e-03,-2.192448233861144999e-02,-7.429963459196102515e-02,-1.532858880000000090e-01,0.000000000000000000e+00,9.963582719999999782e+00
1.691119222412564224e+18,-3.654080389768574709e-03,-4.872107186358099612e-03,-8.404384896467721744e-02,-3.065717760000000180e-01,-3.065717760000000180e-01,1.011686860800000076e+01
1.691119222422564352e+18,1.218026796589524903e-03,2.557856272838002556e-02,-7.917174177831912130e-02,4.598576639999999993e-01,-3.065717760000000180e-01,9.350439168000001189e+00
1.691119222432564224e+18,-9.744214372716199224e-03,2.801461632155907364e-02,-8.160779537149817631e-02,-4.598576639999999993e-01,0.000000000000000000e+00,9.197153280000000208e+00
1.691119222442564608e+18,-2.070645554202192595e-02,6.090133982947624515e-03,-6.942752740560292901e-02,-1.532858880000000090e-01,1.532858880000000090e-01,9.503725056000000393e+00
1.691119222452564480e+18,-7.308160779537149418e-03,-2.436053593179049806e-03,-6.699147381242387400e-02,3.065717760000000180e-01,0.000000000000000000e+00,9.963582719999999782e+00
1.691119222462564352e+18,-8.526187576126675188e-03,-1.096224116930572499e-02,-3.775883069427527633e-02,-6.131435520000000361e-01,1.532858880000000090e-01,9.963582719999999782e+00
1.691119222472564480e+18,-4.872107186358099612e-03,4.872107186358099612e-03,-6.090133982947624515e-03,-3.065717760000000180e-01,0.000000000000000000e+00,9.503725056000000393e+00
1.691119222482564352e+18,-8.526187576126675188e-03,1.461632155907429884e-02,1.218026796589524903e-03,3.065717760000000180e-01,-1.532858880000000090e-01,9.657010944000001373e+00
1.691119222492564480e+18,-1.583434835566382287e-02,1.827040194884287441e-02,1.339829476248477480e-02,-3.065717760000000180e-01,-3.065717760000000180e-01,9.503725056000000393e+00
1.691119222502564352e+18,-4.872107186358099612e-03,9.744214372716199224e-03,1.096224116930572499e-02,-1.532858880000000090e-01,-3.065717760000000180e-01,9.503725056000000393e+00
1.691119222512564480e+18,-4.872107186358099612e-03,1.339829476248477480e-02,1.827040194884287441e-02,0.000000000000000000e+00,0.000000000000000000e+00,9.810296832000000578e+00
1.691119222522564352e+18,1.218026796589524903e-02,1.218026796589524903e-02,3.045066991473812518e-02,7.664294400000000174e-01,1.532858880000000090e-01,9.810296832000000578e+00
1.691119222532564480e+18,2.070645554202192595e-02,2.070645554202192595e-02,4.993909866017052362e-02,0.000000000000000000e+00,-3.065717760000000180e-01,9.963582719999999782e+00
1.691119222542564352e+18,-4.872107186358099612e-03,2.679658952496954960e-02,5.968331303288672285e-02,3.065717760000000180e-01,-3.065717760000000180e-01,9.350439168000001189e+00
1.691119222552564480e+18,1.583434835566382287e-02,2.314250913520097402e-02,5.359317904993909920e-02,4.598576639999999993e-01,-1.532858880000000090e-01,9.043867392000001004e+00
1.691119222562564352e+18,1.583434835566382287e-02,1.827040194884287441e-02,5.968331303288672285e-02,0.000000000000000000e+00,0.000000000000000000e+00,9.350439168000001189e+00
1.691119222572564480e+18,1.461632155907429884e-02,1.339829476248477480e-02,6.942752740560292901e-02,-3.065717760000000180e-01,1.532858880000000090e-01,9.810296832000000578e+00
1.691119222582564352e+18,1.218026796589524903e-02,9.744214372716199224e-03,7.917174177831912130e-02,1.532858880000000090e-01,1.532858880000000090e-01,1.011686860800000076e+01
1.691119222592564224e+18,1.339829476248477480e-02,1.948842874543239845e-02,9.135200974421436859e-02,4.598576639999999993e-01,0.000000000000000000e+00,9.657010944000001373e+00
1.691119222602564352e+18,8.526187576126675188e-03,2.923264311814859767e-02,8.404384896467721744e-02,1.532858880000000090e-01,-3.065717760000000180e-01,9.197153280000000208e+00
1.691119222612564224e+18,-1.218026796589524903e-02,2.801461632155907364e-02,9.987819732034104725e-02,-3.065717760000000180e-01,0.000000000000000000e+00,9.810296832000000578e+00
1.691119222622564352e+18,3.654080389768574709e-03,2.070645554202192595e-02,1.023142509135201023e-01,4.598576639999999993e-01,-1.532858880000000090e-01,9.503725056000000393e+00
1.691119222632564224e+18,-1.461632155907429884e-02,9.744214372716199224e-03,9.500609013398295111e-02,6.131435520000000361e-01,-1.532858880000000090e-01,9.197153280000000208e+00
1.691119222642564352e+18,-8.526187576126675188e-03,9.744214372716199224e-03,9.257003654080389610e-02,3.065717760000000180e-01,-1.532858880000000090e-01,9.350439168000001189e+00
1.691119222652564224e+18,-1.218026796589524903e-03,2.436053593179049806e-03,9.135200974421436859e-02,3.065717760000000180e-01,-1.532858880000000090e-01,9.810296832000000578e+00
1.691119222662564352e+18,-9.744214372716199224e-03,1.705237515225335038e-02,8.647990255785627245e-02,3.065717760000000180e-01,-4.598576639999999993e-01,9.503725056000000393e+00
1.691119222672564224e+18,1.218026796589524903e-03,4.872107186358099612e-03,8.526187576126674494e-02,4.598576639999999993e-01,-9.197153279999999986e-01,9.810296832000000578e+00
1.691119222682564352e+18,2.436053593179049806e-03,2.436053593179049806e-03,5.237515225334957170e-02,4.598576639999999993e-01,-3.065717760000000180e-01,9.503725056000000393e+00
1.691119222692564480e+18,-4.872107186358099612e-03,-3.654080389768574709e-03,4.993909866017052362e-02,6.131435520000000361e-01,-3.065717760000000180e-01,9.810296832000000578e+00
1.691119222702564352e+18,-6.090133982947624515e-03,-2.436053593179049806e-03,3.775883069427527633e-02,1.532858880000000090e-01,-1.532858880000000090e-01,9.657010944000001373e+00
1.691119222712564480e+18,3.654080389768574709e-03,2.436053593179049806e-02,3.410475030450670075e-02,3.065717760000000180e-01,-4.598576639999999993e-01,9.810296832000000578e+00
1.691119222722564352e+18,-6.090133982947624515e-03,2.436053593179049806e-02,3.288672350791717325e-02,4.598576639999999993e-01,-3.065717760000000180e-01,9.503725056000000393e+00
1.691119222732564480e+18,-9.744214372716199224e-03,1.218026796589524903e-03,2.557856272838002556e-02,9.197153279999999986e-01,-4.598576639999999993e-01,9.043867392000001004e+00
1.691119222742564352e+18,-3.654080389768574709e-03,-1.096224116930572499e-02,1.218026796589524903e-03,-4.598576639999999993e-01,-1.532858880000000090e-01,9.657010944000001373e+00
1.691119222752564480e+18,3.654080389768574709e-03,-2.436053593179049806e-03,2.436053593179049806e-03,6.131435520000000361e-01,-3.065717760000000180e-01,9.810296832000000578e+00
1.691119222762564352e+18,2.436053593179049806e-03,1.827040194884287441e-02,3.654080389768574709e-03,4.598576639999999993e-01,0.000000000000000000e+00,9.350439168000001189e+00
1.691119222772564480e+18,-4.872107186358099612e-03,1.339829476248477480e-02,-3.654080389768574709e-03,1.532858880000000090e-01,-4.598576639999999993e-01,9.657010944000001373e+00
1.691119222782564352e+18,-6.090133982947624515e-03,4.872107186358099612e-03,-1.218026796589524903e-02,0.000000000000000000e+00,-1.532858880000000090e-01,9.350439168000001189e+00
1.691119222792564480e+18,-9.744214372716199224e-03,-1.096224116930572499e-02,-4.872107186358099612e-03,1.532858880000000090e-01,-3.065717760000000180e-01,9.810296832000000578e+00
1.691119222802564352e+18,-1.096224116930572499e-02,-4.872107186358099612e-03,-1.218026796589524903e-03,4.598576639999999993e-01,-1.532858880000000090e-01,9.657010944000001373e+00
1.691119222812564480e+18,-1.461632155907429884e-02,-1.218026796589524903e-03,-7.308160779537149418e-03,3.065717760000000180e-01,-1.532858880000000090e-01,9.350439168000001189e+00
1.691119222822564352e+18,0.000000000000000000e+00,2.070645554202192595e-02,2.436053593179049806e-03,4.598576639999999993e-01,-4.598576639999999993e-01,9.197153280000000208e+00
1.691119222832564480e+18,-6.090133982947624515e-03,3.775883069427527633e-02,-8.526187576126675188e-03,4.598576639999999993e-01,-4.598576639999999993e-01,9.503725056000000393e+00
1.691119222842564352e+18,-2.436053593179049806e-03,2.436053593179049806e-03,0.000000000000000000e+00,0.000000000000000000e+00,-3.065717760000000180e-01,9.657010944000001373e+00
1.691119222852564224e+18,-2.436053593179049806e-03,-1.583434835566382287e-02,2.436053593179049806e-03,3.065717760000000180e-01,0.000000000000000000e+00,9.503725056000000393e+00
1.691119222862564352e+18,7.308160779537149418e-03,-9.744214372716199224e-03,3.654080389768574709e-03,-4.598576639999999993e-01,0.000000000000000000e+00,9.657010944000001373e+00
1.691119222872564224e+18,3.654080389768574709e-03,-7.308160779537149418e-03,1.096224116930572499e-02,0.000000000000000000e+00,-1.532858880000000090e-01,9.963582719999999782e+00
1.691119222882564352e+18,0.000000000000000000e+00,3.654080389768574709e-03,2.070645554202192595e-02,4.598576639999999993e-01,-1.532858880000000090e-01,9.503725056000000393e+00
1.691119222892564224e+18,2.436053593179049806e-03,3.654080389768574709e-03,3.654080389768574882e-02,0.000000000000000000e+00,-1.532858880000000090e-01,9.350439168000001189e+00
1.691119222902564352e+18,7.308160779537149418e-03,1.461632155907429884e-02,3.410475030450670075e-02,-3.065717760000000180e-01,0.000000000000000000e+00,9.810296832000000578e+00
1.691119222912564224e+18,8.526187576126675188e-03,1.096224116930572499e-02,3.288672350791717325e-02,9.197153279999999986e-01,0.000000000000000000e+00,9.503725056000000393e+00
1.691119222922564352e+18,-1.218026796589524903e-02,7.308160779537149418e-03,4.750304506699147555e-02,1.532858880000000090e-01,-1.532858880000000090e-01,9.503725056000000393e+00
1.691119222932564224e+18,0.000000000000000000e+00,2.801461632155907364e-02,4.993909866017052362e-02,3.065717760000000180e-01,-1.532858880000000090e-01,9.503725056000000393e+00
1.691119222942564608e+18,0.000000000000000000e+00,1.339829476248477480e-02,6.333739342265529149e-02,1.532858880000000090e-01,-3.065717760000000180e-01,9.810296832000000578e+00
1.691119222952564480e+18,1.218026796589524903e-03,1.461632155907429884e-02,4.872107186358099612e-02,6.131435520000000361e-01,-3.065717760000000180e-01,9.657010944000001373e+00
1.691119222962564352e+18,-1.218026796589524903e-03,2.436053593179049806e-03,6.090133982947625035e-02,3.065717760000000180e-01,-3.065717760000000180e-01,9.810296832000000578e+00
1.691119222972564480e+18,2.436053593179049806e-03,6.090133982947624515e-03,4.750304506699147555e-02,-1.532858880000000090e-01,0.000000000000000000e+00,9.657010944000001373e+00
1.691119222982564352e+18,-2.436053593179049806e-03,1.461632155907429884e-02,4.384896467722289998e-02,1.532858880000000090e-01,-1.532858880000000090e-01,9.503725056000000393e+00
1.691119222992564480e+18,-3.654080389768574709e-03,1.705237515225335038e-02,5.481120584652862671e-02,1.532858880000000090e-01,0.000000000000000000e+00,9.657010944000001373e+00
1.691119223002564352e+18,-4.872107186358099612e-03,3.410475030450670075e-02,5.359317904993909920e-02,1.532858880000000090e-01,0.000000000000000000e+00,9.657010944000001373e+00
1.691119223012564480e+18,-1.827040194884287441e-02,3.897685749086479690e-02,4.872107186358099612e-02,0.000000000000000000e+00,-1.532858880000000090e-01,9.350439168000001189e+00
1.691119223022564352e+18,-1.583434835566382287e-02,3.045066991473812518e-02,5.237515225334957170e-02,4.598576639999999993e-01,-1.532858880000000090e-01,9.043867392000001004e+00
1.691119223032564480e+18,-3.654080389768574709e-03,7.308160779537149418e-03,5.724725943970767478e-02,1.532858880000000090e-01,0.000000000000000000e+00,9.503725056000000393e+00
1.691119223042564352e+18,-1.218026796589524903e-02,7.308160779537149418e-03,6.333739342265529149e-02,3.065717760000000180e-01,-3.065717760000000180e-01,9.657010944000001373e+00
1.691119223052564480e+18,0.000000000000000000e+00,2.070645554202192595e-02,6.455542021924481899e-02,3.065717760000000180e-01,-3.065717760000000180e-01,9.810296832000000578e+00
1.691119223062564352e+18,0.000000000000000000e+00,2.801461632155907364e-02,5.115712545676005113e-02,0.000000000000000000e+00,-6.131435520000000361e-01,9.350439168000001189e+00
1.691119223072564480e+18,6.090133982947624515e-03,1.461632155907429884e-02,3.897685749086479690e-02,6.131435520000000361e-01,-3.065717760000000180e-01,9.350439168000001189e+00
1.691119223082564352e+18,7.308160779537149418e-03,-4.872107186358099612e-03,3.654080389768574882e-02,1.532858880000000090e-01,-3.065717760000000180e-01,9.657010944000001373e+00
1.691119223092564224e+18,9.744214372716199224e-03,-8.526187576126675188e-03,2.679658952496954960e-02,-4.598576639999999993e-01,-4.598576639999999993e-01,9.657010944000001373e+00
1.691119223102564352e+18,1.827040194884287441e-02,0.000000000000000000e+00,3.532277710109622132e-02,1.532858880000000090e-01,-3.065717760000000180e-01,9.657010944000001373e+00
1.691119223112564224e+18,1.461632155907429884e-02,2.070645554202192595e-02,4.506699147381242054e-02,7.664294400000000174e-01,-3.065717760000000180e-01,9.810296832000000578e+00
1.691119223122564352e+18,6.090133982947624515e-03,1.583434835566382287e-02,3.532277710109622132e-02,3.065717760000000180e-01,-3.065717760000000180e-01,9.197153280000000208e+00
1.691119223132564224e+18,1.218026796589524903e-02,3.654080389768574709e-03,4.019488428745432440e-02,7.664294400000000174e-01,-4.598576639999999993e-01,9.197153280000000208e+00
1.691119223142564352e+18,4.872107186358099612e-03,-1.461632155907429884e-02,1.461632155907429884e-02,6.131435520000000361e-01,0.000000000000000000e+00,9.197153280000000208e+00
1.691119223152564224e+18,1.948842874543239845e-02,-1.339829476248477480e-02,2.192448233861144999e-02,0.000000000000000000e+00,0.000000000000000000e+00,9.657010944000001373e+00
1.691119223162564352e+18,8.526187576126675188e-03,8.526187576126675188e-03,2.801461632155907364e-02,0.000000000000000000e+00,0.000000000000000000e+00,1.011686860800000076e+01
1.691119223172564224e+18,1.218026796589524903e-03,2.679658952496954960e-02,3.166869671132764574e-02,6.131435520000000361e-01,-1.532858880000000090e-01,9.963582719999999782e+00
1.691119223182564352e+18,-1.218026796589524903e-03,2.436053593179049806e-02,2.923264311814859767e-02,3.065717760000000180e-01,0.000000000000000000e+00,9.043867392000001004e+00
1.691119223192564480e+18,-1.218026796589524903e-03,-1.705237515225335038e-02,1.827040194884287441e-02,3.065717760000000180e-01,0.000000000000000000e+00,9.350439168000001189e+00
1.691119223202564352e+18,-2.436053593179049806e-03,-7.308160779537149418e-03,2.679658952496954960e-02,6.131435520000000361e-01,0.000000000000000000e+00,9.810296832000000578e+00
1.691119223212564480e+18,-6.090133982947624515e-03,0.000000000000000000e+00,2.557856272838002556e-02,1.532858880000000090e-01,-1.532858880000000090e-01,9.810296832000000578e+00
1.691119223222564352e+18,-3.654080389768574709e-03,2.801461632155907364e-02,3.288672350791717325e-02,4.598576639999999993e-01,-1.532858880000000090e-01,9.350439168000001189e+00
1.691119223232564480e+18,-6.090133982947624515e-03,2.314250913520097402e-02,2.801461632155907364e-02,4.598576639999999993e-01,-1.532858880000000090e-01,9.503725056000000393e+00
1.691119223242564352e+18,1.218026796589524903e-03,9.744214372716199224e-03,2.192448233861144999e-02,1.532858880000000090e-01,-1.532858880000000090e-01,9.810296832000000578e+00
1.691119223252564480e+18,-1.583434835566382287e-02,0.000000000000000000e+00,1.339829476248477480e-02,1.532858880000000090e-01,-3.065717760000000180e-01,9.503725056000000393e+00
1.691119223262564352e+18,-4.872107186358099612e-03,-1.218026796589524903e-03,1.583434835566382287e-02,3.065717760000000180e-01,-1.532858880000000090e-01,9.503725056000000393e+00
1.691119223272564480e+18,3.654080389768574709e-03,0.000000000000000000e+00,4.872107186358099612e-03,4.598576639999999993e-01,0.000000000000000000e+00,9.043867392000001004e+00
1.691119223282564352e+18,1.096224116930572499e-02,7.308160779537149418e-03,2.436053593179049806e-02,0.000000000000000000e+00,0.000000000000000000e+00,9.503725056000000393e+00
1.691119223292564480e+18,0.000000000000000000e+00,2.436053593179049806e-03,1.948842874543239845e-02,-1.532858880000000090e-01,-3.065717760000000180e-01,9.810296832000000578e+00
1.691119223302564352e+18,4.872107186358099612e-03,1.096224116930572499e-02,1.339829476248477480e-02,6.131435520000000361e-01,-4.598576639999999993e-01,9.350439168000001189e+00
1.691119223312564480e+18,8.526187576126675188e-03,3.654080389768574709e-03,8.526187576126675188e-03,0.000000000000000000e+00,-3.065717760000000180e-01,9.197153280000000208e+00
1.691119223322564352e+18,1.583434835566382287e-02,-2.436053593179049806e-03,8.526187576126675188e-03,-1.532858880000000090e-01,-1.532858880000000090e-01,9.657010944000001373e+00
1.691119223332564480e+18,3.654080389768574709e-03,1.705237515225335038e-02,7.308160779537149418e-03,-1.532858880000000090e-01,-3.065717760000000180e-01,9.657010944000001373e+00
1.691119223342564352e+18,6.090133982947624515e-03,1.096224116930572499e-02,1.218026796589524903e-02,1.073001215999999980e+00,-1.532858880000000090e-01,9.503725056000000393e+00
1.691119223352564224e+18,1.339829476248477480e-02,2.436053593179049806e-03,2.923264311814859767e-02,3.065717760000000180e-01,0.000000000000000000e+00,9.503725056000000393e+00
1.691119223362564352e+18,1.339829476248477480e-02,0.000000000000000000e+00,2.436053593179049806e-02,1.532858880000000090e-01,-4.598576639999999993e-01,9.350439168000001189e+00
1.691119223372564224e+18,8.526187576126675188e-03,9.744214372716199224e-03,2.557856272838002556e-02,3.065717760000000180e-01,-1.532858880000000090e-01,9.810296832000000578e+00
1.691119223382564352e+18,1.218026796589524903e-03,6.090133982947624515e-03,3.166869671132764574e-02,-1.532858880000000090e-01,0.000000000000000000e+00,9.810296832000000578e+00
1.691119223392564224e+18,1.583434835566382287e-02,1.583434835566382287e-02,3.654080389768574882e-02,4.598576639999999993e-01,-1.532858880000000090e-01,9.657010944000001373e+00
1.691119223402564352e+18,1.461632155907429884e-02,1.583434835566382287e-02,3.410475030450670075e-02,3.065717760000000180e-01,-1.532858880000000090e-01,9.197153280000000208e+00
1.691119223412564224e+18,6.090133982947624515e-03,-3.654080389768574709e-03,4.263093788063337247e-02,-3.065717760000000180e-01,0.000000000000000000e+00,9.503725056000000393e+00
1.691119223422564352e+18,1.218026796589524903e-03,1.583434835566382287e-02,4.628501827040194805e-02,1.532858880000000090e-01,-1.532858880000000090e-01,9.657010944000001373e+00
1.691119223432564224e+18,-1.218026796589524903e-03,3.166869671132764574e-02,5.602923264311814727e-02,7.664294400000000174e-01,-1.532858880000000090e-01,9.657010944000001373e+00
1.691119223442564608e+18,-3.654080389768574709e-03,1.218026796589524903e-03,5.237515225334957170e-02,0.000000000000000000e+00,-1.532858880000000090e-01,9.503725056000000393e+00
1.691119223452564480e+18,6.090133982947624515e-03,9.744214372716199224e-03,5.115712545676005113e-02,0.000000000000000000e+00,-1.532858880000000090e-01,9.963582719999999782e+00
1.691119223462564352e+18,1.218026796589524903e-03,2.801461632155907364e-02,5.481120584652862671e-02,0.000000000000000000e+00,-1.532858880000000090e-01,9.197153280000000208e+00
1.691119223472564480e+18,-2.436053593179049806e-03,1.827040194884287441e-02,4.750304506699147555e-02,-3.065717760000000180e-01,-1.532858880000000090e-01,9.350439168000001189e+00
1.691119223482564352e+18,-7.308160779537149418e-03,0.000000000000000000e+00,3.654080389768574882e-02,-3.065717760000000180e-01,-4.598576639999999993e-01,9.197153280000000208e+00
1.691119223492564480e+18,-1.096224116930572499e-02,-7.308160779537149418e-03,1.827040194884287441e-02,1.532858880000000090e-01,-3.065717760000000180e-01,9.503725056000000393e+00
1.691119223502564352e+18,1.218026796589524903e-03,0.000000000000000000e+00,3.532277710109622132e-02,-1.532858880000000090e-01,-1.532858880000000090e-01,9.963582719999999782e+00
1.691119223512564480e+18,-6.090133982947624515e-03,9.744214372716199224e-03,2.436053593179049806e-02,-7.664294400000000174e-01,-4.598576639999999993e-01,9.963582719999999782e+00
1.691119223522564352e+18,2.436053593179049806e-03,1.461632155907429884e-02,2.436053593179049806e-03,-3.065717760000000180e-01,-3.065717760000000180e-01,9.197153280000000208e+00
1.691119223532564480e+18,-1.096224116930572499e-02,4.872107186358099612e-03,-3.532277710109622132e-02,-3.065717760000000180e-01,-6.131435520000000361e-01,9.657010944000001373e+00
1.691119223542564352e+18,-1.218026796589524903e-02,-1.583434835566382287e-02,-6.942752740560292901e-02,-1.226287104000000072e+00,-7.664294400000000174e-01,9.503725056000000393e+00
1.691119223552564480e+18,-7.308160779537149418e-03,-1.461632155907429884e-02,-9.013398294762484109e-02,-3.065717760000000180e-01,-1.073001215999999980e+00,9.197153280000000208e+00
1.691119223562564352e+18,-1.218026796589524903e-03,-3.654080389768574709e-03,-1.559074299634591876e-01,-7.664294400000000174e-01,-7.664294400000000174e-01,9.503725056000000393e+00
1.691119223572564480e+18,0.000000000000000000e+00,-3.654080389768574709e-03,-1.839220462850182647e-01,-1.073001215999999980e+00,-1.073001215999999980e+00,9.657010944000001373e+00
1.691119223582564352e+18,-1.218026796589524903e-03,6.090133982947624515e-03,-2.326431181485992816e-01,-1.532858880000000090e-01,-1.073001215999999980e+00,9.657010944000001373e+00
1.691119223592564224e+18,1.583434835566382287e-02,-6.090133982947624515e-03,-2.789281364190012158e-01,-6.131435520000000361e-01,-1.073001215999999980e+00,9.350439168000001189e+00
1.691119223602564352e+18,6.090133982947624515e-03,-2.801461632155907364e-02,-3.215590742996345952e-01,-1.073001215999999980e+00,-9.197153279999999986e-01,9.657010944000001373e+00
1.691119223612564224e+18,9.744214372716199224e-03,-3.654080389768574709e-03,-3.641900121802679746e-01,-6.131435520000000361e-01,-9.197153279999999986e-01,9.810296832000000578e+00
1.691119223622564352e+18,4.872107186358099612e-03,7.308160779537149418e-03,-4.068209500609013540e-01,-3.065717760000000180e-01,-9.197153279999999986e-01,9.657010944000001373e+00
1.691119223632564224e+18,4.872107186358099612e-03,1.705237515225335038e-02,-4.397076735688185134e-01,-7.664294400000000174e-01,-7.664294400000000174e-01,9.197153280000000208e+00
1.691119223642564352e+18,-1.218026796589524903e-03,1.218026796589524903e-02,-4.665042630937880630e-01,-9.197153279999999986e-01,-9.197153279999999986e-01,9.657010944000001373e+00
1.691119223652564224e+18,8.526187576126675188e-03,1.583434835566382287e-02,-5.066991473812423319e-01,-1.532858880000000090e-01,-9.197153279999999986e-01,9.810296832000000578e+00
1.691119223662564352e+18,0.000000000000000000e+00,6.090133982947624515e-03,-5.347137637028014368e-01,-6.131435520000000361e-01,-9.197153279999999986e-01,9.350439168000001189e+00
1.691119223672564224e+18,-7.308160779537149418e-03,2.436053593179049806e-03,-5.639464068209500969e-01,-6.131435520000000361e-01,-4.598576639999999993e-01,9.503725056000000393e+00
1.691119223682564352e+18,-2.436053593179049806e-03,-1.583434835566382287e-02,-5.846528623629719812e-01,-1.686144768000000127e+00,-6.131435520000000361e-01,9.657010944000001373e+00
1.691119223692564480e+18,-1.461632155907429884e-02,7.308160779537149418e-03,-6.077953714981729760e-01,-9.197153279999999986e-01,-7.664294400000000174e-01,9.810296832000000578e+00
1.691119223702564352e+18,-9.744214372716199224e-03,1.705237515225335038e-02,-6.382460414129110804e-01,-3.065717760000000180e-01,-7.664294400000000174e-01,9.350439168000001189e+00
1.691119223712564480e+18,2.436053593179049806e-03,1.218026796589524903e-03,-6.479902557856273004e-01,-1.226287104000000072e+00,-9.197153279999999986e-01,9.503725056000000393e+00
1.691119223722564352e+18,-9.744214372716199224e-03,3.654080389768574709e-03,-6.723507917174177395e-01,-7.664294400000000174e-01,-6.131435520000000361e-01,9.657010944000001373e+00
1.691119223732564480e+18,-1.339829476248477480e-02,-8.526187576126675188e-03,-6.881851400730816248e-01,-7.664294400000000174e-01,-6.131435520000000361e-01,9.810296832000000578e+00
1.691119223742564352e+18,2.436053593179049806e-03,-4.872107186358099612e-03,-7.113276492082826197e-01,-9.197153279999999986e-01,-7.664294400000000174e-01,9.350439168000001189e+00
1.691119223752564480e+18,0.000000000000000000e+00,0.000000000000000000e+00,-7.149817295980511744e-01,-9.197153279999999986e-01,-6.131435520000000361e-01,9.503725056000000393e+00
1.691119223762564352e+18,4.872107186358099612e-03,4.872107186358099612e-03,-7.235079171741778392e-01,-6.131435520000000361e-01,-7.664294400000000174e-01,9.810296832000000578e+00
1.691119223772564480e+18,2.436053593179049806e-03,0.000000000000000000e+00,-7.332521315468940593e-01,-7.664294400000000174e-01,-1.532858880000000090e-01,9.503725056000000393e+00
1.691119223782564352e+18,7.308160779537149418e-03,-1.218026796589524903e-02,-7.235079171741778392e-01,-6.131435520000000361e-01,-3.065717760000000180e-01,9.503725056000000393e+00
1.691119223792564480e+18,-1.218026796589524903e-03,-1.461632155907429884e-02,-7.259439707673568387e-01,-9.197153279999999986e-01,0.000000000000000000e+00,9.657010944000001373e+00
1.691119223802564352e+18,-2.436053593179049806e-03,-8.526187576126675188e-03,-7.088915956151035092e-01,-7.664294400000000174e-01,0.000000000000000000e+00,9.503725056000000393e+00
1.691119223812564480e+18,6.090133982947624515e-03,4.872107186358099612e-03,-6.772228989037758495e-01,-6.131435520000000361e-01,3.065717760000000180e-01,9.810296832000000578e+00
1.691119223822564352e+18,-4.872107186358099612e-03,3.654080389768574709e-03,-6.370280146163215251e-01,-1.532858880000000090e-01,6.131435520000000361e-01,9.350439168000001189e+00
1.691119223832564480e+18,3.654080389768574709e-03,-8.526187576126675188e-03,-6.114494518879415308e-01,-7.664294400000000174e-01,4.598576639999999993e-01,9.810296832000000578e+00
1.691119223842564352e+18,-1.096224116930572499e-02,-1.218026796589524903e-03,-5.615103532277709864e-01,-3.065717760000000180e-01,0.000000000000000000e+00,9.810296832000000578e+00
1.691119223852564224e+18,-1.948842874543239845e-02,6.090133982947624515e-03,-5.274056029232643272e-01,-3.065717760000000180e-01,3.065717760000000180e-01,9.197153280000000208e+00
1.691119223862564352e+18,-6.090133982947624515e-03,7.308160779537149418e-03,-4.908647990255785576e-01,-1.532858880000000090e-01,4.598576639999999993e-01,9.657010944000001373e+00
1.691119223872564224e+18,-6.090133982947624515e-03,1.827040194884287441e-02,-4.579780755176613982e-01,-1.532858880000000090e-01,4.598576639999999993e-01,9.657010944000001373e+00
1.691119223882564352e+18,-1.218026796589524903e-02,1.705237515225335038e-02,-4.397076735688185134e-01,-3.065717760000000180e-01,3.065717760000000180e-01,9.657010944000001373e+00
1.691119223892564224e+18,-6.090133982947624515e-03,1.096224116930572499e-02,-3.690621193666260846e-01,-4.598576639999999993e-01,3.065717760000000180e-01,9.810296832000000578e+00
1.691119223902564352e+18,-8.526187576126675188e-03,1.461632155907429884e-02,-3.337393422655298147e-01,-3.065717760000000180e-01,1.532858880000000090e-01,9.350439168000001189e+00
1.691119223912564224e+18,1.218026796589524903e-03,1.461632155907429884e-02,-3.020706455542022106e-01,-1.532858880000000090e-01,3.065717760000000180e-01,9.503725056000000393e+00
1.691119223922564352e+18,9.744214372716199224e-03,2.192448233861144999e-02,-2.545676004872107212e-01,-6.131435520000000361e-01,3.065717760000000180e-01,9.657010944000001373e+00
1.691119223932564224e+18,7.308160779537149418e-03,2.679658952496954960e-02,-2.155907429963459243e-01,-6.131435520000000361e-01,6.131435520000000361e-01,9.503725056000000393e+00
1.691119223942564608e+18,-1.218026796589524903e-03,7.308160779537149418e-03,-1.583434835566382426e-01,-6.131435520000000361e-01,3.065717760000000180e-01,9.503725056000000393e+00
1.691119223952564480e+18,1.705237515225335038e-02,9.744214372716199224e-03,-1.339829476248477480e-01,-4.598576639999999993e-01,4.598576639999999993e-01,9.503725056000000393e+00
1.691119223962564352e+18,6.090133982947624515e-03,6.090133982947624515e-03,-9.013398294762484109e-02,-6.131435520000000361e-01,3.065717760000000180e-01,9.503725056000000393e+00
1.691119223972564480e+18,1.218026796589524903e-03,2.436053593179049806e-03,-3.654080389768574882e-02,-4.598576639999999993e-01,4.598576639999999993e-01,9.657010944000001373e+00
1.691119223982564352e+18,1.218026796589524903e-02,1.096224116930572499e-02,7.308160779537149418e-03,-4.598576639999999993e-01,3.065717760000000180e-01,9.657010944000001373e+00
1.691119223992564480e+18,9.744214372716199224e-03,8.526187576126675188e-03,2.557856272838002556e-02,-3.065717760000000180e-01,1.532858880000000090e-01,9.503725056000000393e+00
1.691119224002564352e+18,2.436053593179049806e-03,-7.308160779537149418e-03,4.506699147381242054e-02,-6.131435520000000361e-01,1.532858880000000090e-01,9.503725056000000393e+00
1.691119224012564480e+18,1.218026796589524903e-03,0.000000000000000000e+00,5.481120584652862671e-02,-6.131435520000000361e-01,-1.532858880000000090e-01,9.657010944000001373e+00
1.691119224022564352e+18,-3.654080389768574709e-03,-4.872107186358099612e-03,5.968331303288672285e-02,-4.598576639999999993e-01,-1.532858880000000090e-01,9.657010944000001373e+00
1.691119224032564480e+18,4.872107186358099612e-03,2.436053593179049806e-03,6.942752740560292901e-02,-6.131435520000000361e-01,-3.065717760000000180e-01,9.657010944000001373e+00
1.691119224042564352e+18,-1.096224116930572499e-02,2.436053593179049806e-03,5.602923264311814727e-02,-3.065717760000000180e-01,-3.065717760000000180e-01,9.657010944000001373e+00
1.691119224052564480e+18,6.090133982947624515e-03,7.308160779537149418e-03,3.775883069427527633e-02,-7.664294400000000174e-01,-4.598576639999999993e-01,9.657010944000001373e+00
1.691119224062564352e+18,4.872107186358099612e-03,3.654080389768574709e-03,2.436053593179049806e-02,-4.598576639999999993e-01,-6.131435520000000361e-01,9.503725056000000393e+00
1.691119224072564480e+18,-1.218026796589524903e-03,6.090133982947624515e-03,-1.583434835566382287e-02,-7.664294400000000174e-01,-4.598576639999999993e-01,9.503725056000000393e+00
1.691119224082564352e+18,4.872107186358099612e-03,6.090133982947624515e-03,-6.090133982947625035e-02,-7.664294400000000174e-01,-4.598576639999999993e-01,9.657010944000001373e+00
1.691119224092564224e+18,-2.436053593179049806e-03,1.827040194884287441e-02,-9.744214372716199224e-02,-9.197153279999999986e-01,-7.664294400000000174e-01,9.657010944000001373e+00
1.691119224102564352e+18,3.654080389768574709e-03,2.192448233861144999e-02,-1.449451887941534678e-01,-6.131435520000000361e-01,-9.197153279999999986e-01,9.503725056000000393e+00
1.691119224112564224e+18,6.090133982947624515e-03,2.070645554202192595e-02,-1.827040194884287372e-01,-7.664294400000000174e-01,-6.131435520000000361e-01,9.503725056000000393e+00
1.691119224122564352e+18,0.000000000000000000e+00,2.192448233861144999e-02,-2.289890377588306991e-01,-1.073001215999999980e+00,-4.598576639999999993e-01,9.350439168000001189e+00
1.691119224132564224e+18,1.218026796589524903e-03,1.827040194884287441e-02,-2.460414129110840564e-01,-6.131435520000000361e-01,-7.664294400000000174e-01,9.503725056000000393e+00
1.691119224142564352e+18,3.654080389768574709e-03,2.436053593179049806e-02,-2.594397076735688312e-01,-4.598576639999999993e-01,-4.598576639999999993e-01,9.503725056000000393e+00
1.691119224152564224e+18,-1.218026796589524903e-03,2.436053593179049806e-02,-2.898903775883069356e-01,-4.598576639999999993e-01,-6.131435520000000361e-01,9.657010944000001373e+00
1.691119224162564352e+18,-9.744214372716199224e-03,2.070645554202192595e-02,-3.203410475030450399e-01,0.000000000000000000e+00,-6.131435520000000361e-01,9.503725056000000393e+00
1.691119224172564224e+18,-8.526187576126675188e-03,2.070645554202192595e-02,-3.459196102314250898e-01,-1.532858880000000090e-01,-3.065717760000000180e-01,9.657010944000001373e+00
1.691119224182564352e+18,4.872107186358099612e-03,1.827040194884287441e-02,-3.593179049939098646e-01,-1.532858880000000090e-01,-3.065717760000000180e-01,9.657010944000001373e+00
1.691119224192564480e+18,-7.308160779537149418e-03,1.827040194884287441e-02,-3.727161997563946394e-01,-1.532858880000000090e-01,-6.131435520000000361e-01,9.657010944000001373e+00
1.691119224202564352e+18,-4.872107186358099612e-03,2.557856272838002556e-02,-3.946406820950060790e-01,6.131435520000000361e-01,-4.598576639999999993e-01,9.657010944000001373e+00
1.691119224212564480e+18,-1.583434835566382287e-02,1.096224116930572499e-02,-4.092570036540804090e-01,3.065717760000000180e-01,-9.197153279999999986e-01,9.503725056000000393e+00
1.691119224222564352e+18,-4.872107186358099612e-03,9.744214372716199224e-03,-4.555420219244823432e-01,4.598576639999999993e-01,-6.131435520000000361e-01,9.657010944000001373e+00
1.691119224232564480e+18,6.090133982947624515e-03,1.705237515225335038e-02,-4.750304506699147278e-01,1.532858880000000090e-01,-6.131435520000000361e-01,9.657010944000001373e+00
1.691119224242564352e+18,-6.090133982947624515e-03,9.744214372716199224e-03,-5.237515225334957725e-01,1.532858880000000035e+00,-6.131435520000000361e-01,9.503725056000000393e+00
1.691119224252564480e+18,6.090133982947624515e-03,1.339829476248477480e-02,-5.383678440925699915e-01,1.532858880000000035e+00,-7.664294400000000174e-01,9.503725056000000393e+00
1.691119224262564352e+18,2.436053593179049806e-03,8.526187576126675188e-03,-5.676004872107186516e-01,-1.532858880000000090e-01,-7.664294400000000174e-01,9.197153280000000208e+00
1.691119224272564480e+18,6.090133982947624515e-03,3.654080389768574709e-03,-5.834348355663824259e-01,1.073001215999999980e+00,-3.065717760000000180e-01,9.350439168000001189e+00
1.691119224282564352e+18,4.872107186358099612e-03,4.872107186358099612e-03,-6.090133982947625313e-01,-1.532858880000000090e-01,-3.065717760000000180e-01,9.350439168000001189e+00
1.691119224292564480e+18,-7.308160779537149418e-03,9.744214372716199224e-03,-6.309378806333739709e-01,7.664294400000000174e-01,-4.598576639999999993e-01,9.350439168000001189e+00
1.691119224302564352e+18,0.000000000000000000e+00,-7.308160779537149418e-03,-6.565164433617539652e-01,6.131435520000000361e-01,-6.131435520000000361e-01,9.657010944000001373e+00
1.691119224312564480e+18,-1.218026796589524903e-03,-4.872107186358099612e-03,-6.894031668696711801e-01,3.065717760000000180e-01,-6.131435520000000361e-01,9.503725056000000393e+00
1.691119224322564352e+18,-6.090133982947624515e-03,-9.744214372716199224e-03,-7.113276492082826197e-01,3.065717760000000180e-01,-6.131435520000000361e-01,9.503725056000000393e+00
1.691119224332564480e+18,-8.526187576126675188e-03,-3.654080389768574709e-03,-7.515225334957369441e-01,4.598576639999999993e-01,-7.664294400000000174e-01,9.503725056000000393e+00
