timestamp, angular_velocity_x, angular_velocity_y, angular_velocity_z, linear_acceleration_x, linear_acceleration_y, linear_acceleration_z
1520531467566265223, -0.19734023677487156, 0.061519021180830406, 0.09906959255094767, -1.20948486328125, -0.52929931640625, 10.605146484375
1520531467571282223, -0.2055960361541172, 0.06657902725198096, 0.09933590865995559, -1.2250524902343751, -0.5352868652343751, 10.466235351562501
1520531467576297223, -0.21305288720633908, 0.07669903939428206, 0.10120012142301106, -1.272952880859375, -0.51732421875, 10.369237060546876
1520531467581313223, -0.2165149966234421, 0.09081379317170203, 0.1027980180770586, -1.316063232421875, -0.496966552734375, 10.280621337890626
1520531467586328223, -0.21678131273245, 0.10492854694912199, 0.10040117309598728, -1.3939013671875, -0.513731689453125, 10.11895751953125
1520531467591344223, -0.21278657109733115, 0.11930961683554989, 0.09933590865995559, -1.53520751953125, -0.5077441406250001, 10.067464599609375
1520531467596359223, -0.2119876227703074, 0.1374191122480887, 0.0982706442239239, -1.53999755859375, -0.5544470214843751, 10.024354248046876
1520531467601375223, -0.21065604222526776, 0.15472965933360375, 0.09187905760773372, -1.61663818359375, -0.5987548828125, 10.1165625
1520531467606392223, -0.20346550728205381, 0.16325177482185732, 0.08788431597261487, -1.627415771484375, -0.63468017578125, 10.220745849609376
1520531467611406223, -0.19973708175594287, 0.16351809093086522, 0.08468852266451977, -1.543590087890625, -0.640667724609375, 10.328521728515625
1520531467616422223, -0.19148128237669723, 0.1552622915516196, 0.08255799379245639, -1.471739501953125, -0.6574328613281251, 10.465037841796876
1520531467621439223, -0.18375811521546745, 0.13901700890213625, 0.07962851659336923, -1.31965576171875, -0.63228515625, 10.563233642578126
1520531467626455223, -0.17124125809209503, 0.11664645574547064, 0.08096009713840885, -1.2118798828125001, -0.583187255859375, 10.668614501953126
1520531467631471223, -0.15606123987864337, 0.09081379317170203, 0.08468852266451977, -1.1388317871093752, -0.55324951171875, 10.69376220703125
1520531467636486223, -0.14114753777419964, 0.06844324001503643, 0.08735168375459902, -1.07296875, -0.52929931640625, 10.627899169921875
1520531467641502223, -0.11984224905356573, 0.05113269292952138, 0.08788431597261487, -1.052611083984375, -0.5245092773437501, 10.547666015625001
1520531467646517223, -0.0982706442239239, 0.0402137324601965, 0.08655273542757524, -0.999920654296875, -0.511336669921875, 10.399174804687501
1520531467651533223, -0.07483482663122659, 0.03542004249805387, 0.08815063208162278, -0.96998291015625, -0.5412744140625, 10.280621337890626
1520531467656550223, -0.04846953183944214, 0.03488741028003802, 0.08788431597261487, -0.985550537109375, -0.57719970703125, 10.1692529296875
1520531467661565223, -0.022636869265673525, 0.038615835806148954, 0.08388957433749601, -1.016685791015625, -0.609532470703125, 10.030341796875
1520531467666580223, 0.0005326322180158477, 0.04154531300523612, 0.07962851659336923, -1.0837463378906251, -0.67300048828125, 9.94651611328125
1520531467671596223, 0.02476739813773692, 0.050067428493489684, 0.07190534943213944, -1.2466076660156251, -0.7556286621093751, 9.89861572265625
1520531467676611223, 0.04500742242233913, 0.06551376281594927, 0.05779059565471947, -1.41545654296875, -0.8622070312500001, 9.844727783203126
1520531467681628223, 0.0625842856168621, 0.08362325822848808, 0.041278996896228194, -1.60705810546875, -0.9496252441406251, 9.84113525390625
1520531467686647223, 0.07643272328527415, 0.10865697247523293, 0.0234358175926973, -1.6825012207031251, -1.064586181640625, 9.856702880859375
1520531467691660223, 0.0860201032095594, 0.12996226119586685, 0.002663161090079238, -1.7124389648437501, -1.20469482421875, 9.940528564453125
1520531467696674223, 0.09454221869781296, 0.1440770149732868, -0.01731054708551505, -1.65974853515625, -1.235830078125, 10.122550048828126
1520531467701690223, 0.09667274756987636, 0.14594122773634227, -0.033555829734998405, -1.4932946777343752, -1.235830078125, 10.268646240234375
1520531467706707223, 0.0982706442239239, 0.1352885833760253, -0.04633900296737875, -1.37713623046875, -1.1903247070312502, 10.386002197265626
1520531467711723223, 0.09960222476896352, 0.12117382959860534, -0.05539375067364816, -1.2789404296875, -1.1088940429687502, 10.457852783203126
1520531467716736223, 0.09747169589690012, 0.10093380531400313, -0.06311691783487795, -1.249002685546875, -0.9927355957031251, 10.500963134765625
1520531467721754223, 0.09614011535186051, 0.08309062601047223, -0.06844324001503643, -1.11847412109375, -0.8622070312500001, 10.577603759765626
1520531467726770223, 0.09986854087797144, 0.06285060172587002, -0.0681769239060285, -1.063388671875, -0.6849755859375001, 10.637479248046876
1520531467731786223, 0.10546117916713783, 0.03941478413317273, -0.06045375674479871, -1.050216064453125, -0.488583984375, 10.718909912109375
1520531467736802223, 0.11318434632836763, 0.01597896654047543, -0.048203215730434214, -0.9915380859375, -0.3496728515625, 10.773995361328126
1520531467741817223, 0.12463593901570835, -0.011185276578332801, -0.0290284558818637, -1.01309326171875, -0.290994873046875, 10.795550537109376
1520531467746832223, 0.13715279613908077, -0.03941478413317273, -0.010652644360316953, -1.090931396484375, -0.30416748046875003, 10.811118164062501
1520531467751849223, 0.14887070493542942, -0.06418218227090965, 0.007456851052221868, -1.2286450195312502, -0.35685791015625, 10.809920654296876
1520531467756865223, 0.16325177482185732, -0.08575378710055148, 0.021571604829641832, -1.41066650390625, -0.42391845703125003, 10.80393310546875
1520531467761880223, 0.17470336750919804, -0.10306433418606653, 0.02769687533682408, -1.586700439453125, -0.5867797851562501, 10.826685791015626
1520531467766896223, 0.18722022463257046, -0.11744540407249442, 0.025300030355752765, -1.81781982421875, -0.760418701171875, 10.847043457031251
1520531467771912223, 0.19121496626768933, -0.12942962897785099, 0.011451592687340724, -1.9172131347656252, -0.9244775390625001, 10.98595458984375
1520531467776928223, 0.19228023070372102, -0.14487596330031058, -0.009054747706269411, -1.9291882324218752, -1.0238708496093751, 11.023077392578125
1520531467781943223, 0.19520970790280817, -0.16671388423896033, -0.031158984753927088, -1.941163330078125, -1.090931396484375, 11.051817626953126
1520531467786959223, 0.1920139145947131, -0.19041601794066554, -0.05326322180158477, -1.88488037109375, -1.1567944335937501, 11.132050781250001
1520531467791974223, 0.19174759848570516, -0.21491709996939454, -0.07430219441321075, -1.756746826171875, -1.1088940429687502, 11.130853271484376
1520531467796989223, 0.1901497018316576, -0.23995081421613937, -0.09347695426178126, -1.632205810546875, -1.011895751953125, 11.0697802734375
1520531467802006223, 0.1898833857226497, -0.2580603096286782, -0.11078750134729631, -1.5567626953125, -0.9244775390625001, 10.891351318359376
1520531467807022223, 0.19307917903074479, -0.2681803217709793, -0.12703278399677967, -1.50167724609375, -0.8813671875000001, 10.72250244140625
1520531467812038223, 0.19707392066586363, -0.2711097989700665, -0.14674017606336603, -1.4178515625, -0.8023315429687501, 10.59556640625
1520531467817052223, 0.19813918510189535, -0.26658242511693175, -0.1685780970020158, -1.39869140625, -0.77359130859375, 10.417137451171875
1520531467822068223, 0.20346550728205381, -0.2535329357755435, -0.19068233404967347, -1.387913818359375, -0.73527099609375, 10.3129541015625
1520531467827085223, 0.2077265650261806, -0.2380866014530839, -0.21172130666129946, -1.397493896484375, -0.7747888183593751, 10.18601806640625
1520531467832100223, 0.20985709389824397, -0.2191781577135213, -0.23595607258102053, -1.36755615234375, -0.810714111328125, 10.098599853515626
1520531467837117223, 0.21038972611625983, -0.19307917903074479, -0.2591255740647099, -1.4609619140625, -0.798739013671875, 10.067464599609375
1520531467842132223, 0.20799288113518852, -0.17017599365606334, -0.2825613916574072, -1.46335693359375, -0.7711962890625, 10.024354248046876
1520531467847147223, 0.20586235226312513, -0.1454085955183264, -0.3073287897951441, -1.4214440917968751, -0.77359130859375, 10.038724365234376
1520531467852164223, 0.20080234619197457, -0.12250541014364497, -0.3315635557148652, -1.2981005859375, -0.729283447265625, 10.0638720703125
1520531467857180223, 0.19228023070372102, -0.10066748920499521, -0.3542004249805387, -1.215472412109375, -0.681383056640625, 10.164462890625
1520531467862195223, 0.1829591668884437, -0.07856325215733753, -0.37364150093811715, -1.21427490234375, -0.6574328613281251, 10.199190673828125
1520531467867210223, 0.17230652252812673, -0.06018744063579079, -0.39015309969660844, -1.0921289062500001, -0.536484375, 10.279423828125001
1520531467872227223, 0.1629854587128494, -0.041278996896228194, -0.3984088990758541, -0.96998291015625, -0.42272094726562504, 10.279423828125001
1520531467877242223, 0.15339807878856412, -0.023169501483689375, -0.402137324601965, -0.871787109375, -0.257464599609375, 10.268646240234375
1520531467882258223, 0.14620754384535017, -0.004793689962142629, -0.39947416351188575, -0.8047265625000001, -0.116158447265625, 10.279423828125001
1520531467887274223, 0.1374191122480887, 0.018908443739562592, -0.3898867835876005, -0.7831713867187501, -0.011975097656250001, 10.183623046875
1520531467892290223, 0.12756541621479553, 0.046605319076386674, -0.37550571370117264, -0.7855664062500001, 0.053887939453125006, 10.10937744140625
1520531467897304223, 0.1195759329445578, 0.07456851052221868, -0.35766253439764173, -0.7580236816406251, 0.10538085937500001, 10.008786621093751
1520531467902321223, 0.11132013356531216, 0.10412959862209822, -0.3366235617860157, -0.789158935546875, 0.09580078125000001, 10.007589111328125
1520531467907336223, 0.09960222476896352, 0.13315805450396193, -0.31744880193744524, -0.820294189453125, 0.0335302734375, 9.9776513671875
1520531467912353223, 0.08868326429963864, 0.1600559815137622, -0.29907299041589847, -0.849034423828125, -0.0814306640625, 9.97046630859375
1520531467917368223, 0.07510114274023452, 0.18508969576050707, -0.2814961272213755, -0.906514892578125, -0.17483642578125, 10.048304443359376
1520531467922384223, 0.05539375067364816, 0.2055960361541172, -0.2703108506430427, -0.966390380859375, -0.281414794921875, 10.121352539062501
1520531467927400223, 0.03302319751698256, 0.2213086865855847, -0.26445189624486837, -1.052611083984375, -0.389190673828125, 10.259066162109375
1520531467932416223, 0.009321063815277334, 0.2346244920359809, -0.2620550512637971, -1.107696533203125, -0.42272094726562504, 10.3895947265625
1520531467937431223, -0.017576863194522972, 0.24341292363324238, -0.26498452846288423, -1.13284423828125, -0.45026367187500005, 10.491383056640625
1520531467942447223, -0.04713795129440252, 0.2503371424674484, -0.2695119023160189, -1.098116455078125, -0.41433837890625, 10.554851074218751
1520531467947461223, -0.07190534943213944, 0.2532666196665356, -0.27004453453403476, -1.016685791015625, -0.29937744140625, 10.632689208984376
1520531467952479223, -0.09400958647979711, 0.2524676713395118, -0.2676476895529635, -0.9352551269531251, -0.144898681640625, 10.575208740234375
1520531467957495223, -0.1139832946553914, 0.24953819414042464, -0.2580603096286782, -0.8370593261718751, 0.027542724609375003, 10.493778076171875
1520531467962509223, -0.12650015177876384, 0.24847292970439294, -0.24394555585125824, -0.810714111328125, 0.199984130859375, 10.459050292968751
1520531467967525223, -0.13981595722916002, 0.24873924581340087, -0.2290318537468145, -0.7999365234375, 0.3113525390625, 10.462642822265625
1520531467972542223, -0.1507349176984849, 0.25060345857645633, -0.20932446168022814, -0.8023315429687501, 0.36284545898437504, 10.426717529296875
1520531467977557223, -0.15712650431467506, 0.24980451024943257, -0.18828548906860215, -0.79275146484375, 0.40475830078125, 10.459050292968751
1520531467982573223, -0.16271914260384146, 0.24234765919721069, -0.1653823036939207, -0.805924072265625, 0.425115966796875, 10.546468505859375
1520531467987589223, -0.16937704532903955, 0.23515712425399674, -0.14247911831923926, -0.85023193359375, 0.4167333984375, 10.65065185546875
1520531467992604223, -0.17710021249026936, 0.2199771060405451, -0.12144014570761327, -0.861009521484375, 0.3975732421875, 10.727292480468751
1520531467997619223, -0.18375811521546745, 0.2045307717180855, -0.09906959255094767, -0.8705895996093751, 0.3400927734375, 10.80872314453125
1520531468002636223, -0.18828548906860215, 0.1856223279785229, -0.080427464920393, -0.8646020507812501, 0.267044677734375, 10.922486572265626
1520531468007651223, -0.19281286292173686, 0.1629854587128494, -0.05992112452678287, -0.91729248046875, 0.19160156250000002, 10.996732177734376
1520531468012668223, -0.19840550121090325, 0.1419464861012234, -0.045540054640354974, -1.0011181640625, 0.16046630859375, 11.06738525390625
1520531468017683223, -0.2066613005901489, 0.12170646181662119, -0.03062635253591124, -1.044228515625, 0.058677978515625, 11.179951171875
1520531468022699223, -0.21305288720633908, 0.10093380531400313, -0.025033714246744842, -1.06099365234375, 0.01676513671875, 11.241024169921875
1520531468027715223, -0.21624868051443416, 0.07989483270237716, -0.021305288720633905, -1.04183349609375, 0.06466552734375, 11.241024169921875
1520531468032731223, -0.21811289327748962, 0.05938849230876701, -0.01731054708551505, -1.0106982421875002, 0.15208374023437501, 11.206296386718751
1520531468037746223, -0.21944447382252924, 0.0402137324601965, -0.009853696033293183, -0.95082275390625, 0.20836669921875, 11.100915527343751
1520531468042762223, -0.21704762884145792, 0.021571604829641832, 0.0, -0.87897216796875, 0.31374755859375003, 11.039842529296875
1520531468047777223, -0.20746024891717266, 0.0007989483270237715, 0.01038632825130903, -0.83586181640625, 0.46223876953125004, 10.917696533203125
1520531468052794223, -0.19414444346677648, -0.021038972611625982, 0.02982740420888747, -0.8178991699218751, 0.53408935546875, 10.833870849609376
1520531468057810223, -0.1773665285992773, -0.037816887479125184, 0.05060006071150553, -0.795146484375, 0.561632080078125, 10.747650146484375
1520531468062824223, -0.15339807878856412, -0.05645901510967986, 0.07323692997717905, -0.846639404296875, 0.540076904296875, 10.7153173828125
1520531468067841223, -0.13209279006793023, -0.07643272328527415, 0.0950748509158288, -0.8023315429687501, 0.49576904296875, 10.6865771484375
1520531468072857223, -0.10519486305812992, -0.08868326429963864, 0.11424961076439932, -0.825084228515625, 0.45026367187500005, 10.674602050781251
1520531468077872223, -0.07989483270237716, -0.10199906975003482, 0.13422331893999362, -0.9412426757812501, 0.3400927734375, 10.668614501953126
1520531468082888223, -0.053529537910592694, -0.11478224298241517, 0.14700649217237396, -0.99393310546875, 0.250279541015625, 10.630294189453126
1520531468087904223, -0.02849582366384785, -0.12197277792562912, 0.15499597544261168, -1.088536376953125, 0.130528564453125, 10.631491699218751
1520531468092919223, -0.003994741635118857, -0.13129384174090644, 0.15579492376963544, -1.155596923828125, 0.027542724609375003, 10.632689208984376
1520531468097934223, 0.022370553156665602, -0.1352885833760253, 0.1528654465705483, -1.179547119140625, -0.06945556640625, 10.587183837890626
1520531468102951223, 0.04607268685837083, -0.1384843766841204, 0.1472728082813819, -1.205892333984375, -0.10538085937500001, 10.536888427734375
1520531468107967223, 0.0681769239060285, -0.14168016999221547, 0.13555489948503324, -1.2597802734375, -0.195194091796875, 10.578801269531251
1520531468112982223, 0.08362325822848808, -0.1440770149732868, 0.12197277792562912, -1.2466076660156251, -0.310155029296875, 10.59556640625
1520531468117999223, 0.10120012142301106, -0.1531317626795562, 0.11158644967432009, -1.1951147460937501, -0.396375732421875, 10.546468505859375
1520531468123014223, 0.11797803629051026, -0.16058861373177807, 0.10253170196805068, -1.1951147460937501, -0.415535888671875, 10.547666015625001
1520531468128030223, 0.13209279006793023, -0.16804546478399995, 0.09028116095368618, -1.232237548828125, -0.45146118164062504, 10.577603759765626
1520531468133045223, 0.14354438275527096, -0.1765675802722535, 0.07616640717626622, -1.312470703125, -0.506546630859375, 10.58359130859375
1520531468138062223, 0.15233281435253243, -0.18588864408753084, 0.060720072853806636, -1.3460009765625, -0.57719970703125, 10.57640625
1520531468143078223, 0.15952334929574638, -0.1909486501586814, 0.04340952576829159, -1.409468994140625, -0.63468017578125, 10.662626953125
1520531468148092223, 0.16218651038582563, -0.1976065528838795, 0.022636869265673525, -1.42024658203125, -0.705333251953125, 10.711724853515626
1520531468153109223, 0.16271914260384146, -0.20506340393610137, 0.004527373853134706, -1.445394287109375, -0.750838623046875, 10.738070068359375
1520531468158125223, 0.16378440703987315, -0.21038972611625983, -0.016245282649483356, -1.3950988769531252, -0.7771838378906251, 10.71052734375
1520531468163139223, 0.1619201942768177, -0.21411815164237077, -0.03648530693408557, -1.320853271484375, -0.737666015625, 10.680589599609375
1520531468168157223, 0.15792545264169883, -0.21731394495046585, -0.05113269292952138, -1.2334350585937501, -0.7065307617187501, 10.6769970703125
1520531468173172223, 0.15472965933360375, -0.2191781577135213, -0.062317969507854176, -1.167572021484375, -0.6035449218750001, 10.674602050781251
1520531468178187223, 0.15259913046154036, -0.21971078993153717, -0.06711165946999681, -1.08494384765625, -0.477806396484375, 10.589578857421875
1520531468183204223, 0.15046860158947697, -0.21678131273245, -0.06657902725198096, -1.064586181640625, -0.34727783203125, 10.484197998046875
1520531468188219223, 0.15126754991650074, -0.20799288113518852, -0.062317969507854176, -0.9496252441406251, -0.20357666015625, 10.37282958984375
1520531468193235223, 0.15233281435253243, -0.19520970790280817, -0.051665325147537224, -0.849034423828125, -0.009580078125, 10.2842138671875
1520531468198250223, 0.15366439489757205, -0.17789916081729312, -0.03595267471606972, -0.805924072265625, 0.09580078125000001, 10.192005615234375
1520531468203266223, 0.15686018820566713, -0.16218651038582563, -0.014381069886427887, -0.7280859375000001, 0.12693603515625002, 10.181228027343751
1520531468208281223, 0.15765913653269092, -0.14460964719130265, 0.00825579937924564, -0.700543212890625, 0.143701171875, 10.206375732421876
1520531468213296223, 0.15792545264169883, -0.13156015784991437, 0.02556634646476069, -0.671802978515625, 0.12094848632812501, 10.163265380859375
1520531468218313223, 0.15899071707773052, -0.12144014570761327, 0.04154531300523612, -0.664617919921875, 0.08861572265625, 10.141710205078125
1520531468223329223, 0.15686018820566713, -0.1105211852382884, 0.05965480841777494, -0.67779052734375, 0.023950195312500002, 10.1405126953125
1520531468228345223, 0.15126754991650074, -0.10066748920499521, 0.07163903332313151, -0.7831713867187501, -0.067060546875, 10.105784912109376
1520531468233361223, 0.1419464861012234, -0.08921589651765449, 0.08229167768344847, -0.9053173828125001, -0.183218994140625, 10.14290771484375
1520531468238377223, 0.13448963504900155, -0.07456851052221868, 0.08815063208162278, -0.978365478515625, -0.31255004882812504, 10.223140869140625
1520531468243392223, 0.12250541014364497, -0.0580569117637274, 0.08282430990146432, -1.110091552734375, -0.43110351562500004, 10.256671142578126
1520531468248407223, 0.10759170803920123, -0.039681100242180654, 0.07243798165015529, -1.1819421386718751, -0.5700146484375, 10.369237060546876
1520531468253424223, 0.09001484484467825, -0.02556634646476069, 0.055926382891664, -1.25738525390625, -0.678988037109375, 10.47821044921875
1520531468258439223, 0.06498113059793342, -0.012250541014364496, 0.03834951969714103, -1.32205078125, -0.762813720703125, 10.53569091796875
1520531468263454223, 0.03994741635118858, -0.006657902725198096, 0.016777914867499202, -1.387913818359375, -0.7664062500000001, 10.546468505859375
1520531468268471223, 0.014114753777419964, -0.0005326322180158477, -0.0010652644360316954, -1.4034814453125, -0.7556286621093751, 10.55724609375
1520531468273487223, -0.012783173232380344, 0.00346210941710301, -0.017576863194522972, -1.37234619140625, -0.71611083984375, 10.509345703125
1520531468278503223, -0.03755057137011726, 0.01464738599543581, -0.030360036426903318, -1.330433349609375, -0.63228515625, 10.5380859375
1520531468283518223, -0.060720072853806636, 0.02636529479178446, -0.0402137324601965, -1.2933105468750001, -0.52929931640625, 10.5811962890625
1520531468288534223, -0.0860201032095594, 0.03595267471606972, -0.045540054640354974, -1.28373046875, -0.499361572265625, 10.603948974609375
1520531468293550223, -0.11211908189233594, 0.047404267403410444, -0.04953479627547384, -1.299298095703125, -0.48379394531250003, 10.59556640625
1520531468298564223, -0.1307612095228906, 0.05779059565471947, -0.05033374460249761, -1.325643310546875, -0.446671142578125, 10.605146484375
1520531468303582223, -0.15153386602550867, 0.0692421883420602, -0.051665325147537224, -1.2801379394531252, -0.45744873046875, 10.526110839843751
1520531468308597223, -0.17017599365606334, 0.07882956826634546, -0.05193164125654515, -1.2466076660156251, -0.4358935546875, 10.460247802734376
1520531468313612223, -0.18349179910645952, 0.08708536764559109, -0.050866376820513454, -1.178349609375, -0.43349853515625003, 10.359656982421875
1520531468318629223, -0.1976065528838795, 0.09427590258880504, -0.04953479627547384, -1.112486572265625, -0.44068359375000005, 10.251881103515625
1520531468323645223, -0.20479708782709344, 0.10066748920499521, -0.04846953183944214, -1.098116455078125, -0.458646240234375, 10.21475830078125
1520531468328660223, -0.21092235833427567, 0.10199906975003482, -0.045540054640354974, -0.9735754394531251, -0.45265869140625004, 10.156080322265625
1520531468333675223, -0.2146507838603866, 0.10359696640408238, -0.044741106313331204, -0.9651928710937501, -0.4646337890625, 10.139315185546875
1520531468338691223, -0.21678131273245, 0.10466223084011407, -0.045540054640354974, -0.947230224609375, -0.48139892578125004, 10.151290283203126
1520531468343707223, -0.2146507838603866, 0.10572749527614576, -0.04287689355027574, -0.9244775390625001, -0.47181884765625004, 10.206375732421876
1520531468348722223, -0.2122539388793153, 0.09933590865995559, -0.04527373853134705, -0.779578857421875, -0.429906005859375, 10.31055908203125
1520531468353739223, -0.21172130666129946, 0.08735168375459902, -0.04367584187729951, -0.621507568359375, -0.31853759765625, 10.433902587890625
1520531468358754223, -0.20799288113518852, 0.07323692997717905, -0.03302319751698256, -0.5843847656250001, -0.178428955078125, 10.503358154296876
1520531468363769223, -0.20532972004510927, 0.05299690569257685, -0.015180018213451659, -0.59396484375, -0.046702880859375004, 10.63628173828125
1520531468368786223, -0.2010686623009825, 0.02769687533682408, 0.006125270507182248, -0.6514453125, -0.01916015625, 10.727292480468751
1520531468373801223, -0.19494339179380024, -0.0005326322180158477, 0.025832662573768612, -0.6143225097656251, -0.01676513671875, 10.734477539062501
1520531468378818223, -0.18775285685058632, -0.0234358175926973, 0.047404267403410444, -0.62031005859375, 0.01916015625, 10.750045166015626
1520531468383833223, -0.17789916081729312, -0.04234426133225989, 0.06711165946999681, -0.7173083496093751, 0.056282958984375006, 10.735675048828126
1520531468388849223, -0.16458335536689694, -0.05992112452678287, 0.08175904546543261, -0.7328759765625, 0.06586303710937501, 10.697354736328126
1520531468393865223, -0.15233281435253243, -0.06870955612404435, 0.09534116702483673, -0.7915539550781251, 0.023950195312500002, 10.55964111328125
1520531468398880223, -0.13981595722916002, -0.06897587223305228, 0.1027980180770586, -0.7999365234375, -0.08861572265625, 10.490185546875
1520531468403897223, -0.12330435847066874, -0.06791060779702057, 0.1027980180770586, -0.85023193359375, -0.19399658203125, 10.34887939453125
1520531468408911223, -0.10466223084011407, -0.06311691783487795, 0.10173275364102691, -0.83107177734375, -0.276624755859375, 10.215955810546875
1520531468413926223, -0.08415589044650393, -0.0513990090385293, 0.09960222476896352, -0.85981201171875, -0.360450439453125, 10.132130126953125
1520531468418943223, -0.06471481448892549, -0.04101268078722027, 0.09294432204376542, -0.9268725585937501, -0.4454736328125, 10.08542724609375
1520531468423959223, -0.047404267403410444, -0.028762139772855775, 0.08548747099154355, -0.93645263671875, -0.513731689453125, 10.09500732421875
1520531468428976223, -0.026631610900792385, -0.014381069886427887, 0.07882956826634546, -0.9136999511718751, -0.5736071777343751, 10.156080322265625
1520531468433990223, -0.006391586616190172, -0.001331580545039619, 0.0737695621951949, -0.944835205078125, -0.58198974609375, 10.139315185546875
1520531468439007223, 0.015180018213451659, 0.007989483270237714, 0.06551376281594927, -1.038240966796875, -0.650247802734375, 10.192005615234375
1520531468444023223, 0.03595267471606972, 0.017044230976507126, 0.05858954398174324, -1.09452392578125, -0.6658154296875001, 10.298583984375
1520531468449037223, 0.05539375067364816, 0.02290318537468145, 0.0513990090385293, -1.1603869628906252, -0.6634204101562501, 10.350076904296875
1520531468454054223, 0.07483482663122659, 0.02476739813773692, 0.04261057744126781, -1.215472412109375, -0.681383056640625, 10.374027099609375
1520531468459069223, 0.09614011535186051, 0.023968449810713145, 0.03382214584400633, -1.28133544921875, -0.686173095703125, 10.457852783203126
1520531468464084223, 0.10972223691126462, 0.020506340393610135, 0.023702133701705222, -1.26217529296875, -0.6741979980468751, 10.490185546875
1520531468469101223, 0.12863068065082722, 0.01731054708551505, 0.01597896654047543, -1.19990478515625, -0.647852783203125, 10.364447021484375
1520531468474117223, 0.14620754384535017, 0.01597896654047543, 0.010918960469324878, -1.18074462890625, -0.631087646484375, 10.29139892578125
1520531468479132223, 0.15899071707773052, 0.01464738599543581, 0.007190534943213944, -1.110091552734375, -0.59156982421875, 10.219548339843751
1520531468484148223, 0.17417073529118218, 0.01597896654047543, 0.009587379924285258, -1.035845947265625, -0.55564453125, 10.148895263671875
1520531468489164223, 0.19068233404967347, 0.01384843766841204, 0.011984224905356573, -0.966390380859375, -0.511336669921875, 10.1500927734375
1520531468494180223, 0.20319919117304588, 0.011984224905356573, 0.016777914867499202, -0.940045166015625, -0.48259643554687504, 10.17164794921875
1520531468499195223, 0.2146507838603866, 0.007190534943213944, 0.025300030355752765, -0.89334228515625, -0.49337402343750003, 10.156080322265625
1520531468504211223, 0.2266350087657432, -0.00346210941710301, 0.033555829734998405, -0.9029223632812501, -0.4742138671875, 10.160870361328126
1520531468509227223, 0.23489080814498883, -0.011451592687340724, 0.04340952576829159, -0.889749755859375, -0.525706787109375, 10.1500927734375
1520531468514242223, 0.24660871694133749, -0.017044230976507126, 0.05486111845563231, -0.910107421875, -0.494571533203125, 10.129735107421876
1520531468519258223, 0.2583266257376861, -0.021571604829641832, 0.0636495500528938, -0.887354736328125, -0.44068359375000005, 10.074649658203125
1520531468524275223, 0.269245586207011, -0.023702133701705222, 0.07297061386817114, -0.963995361328125, -0.44068359375000005, 10.04231689453125
1520531468529290223, 0.276169805041217, -0.022636869265673525, 0.07776430383031376, -1.0346484375, -0.43828857421875, 10.039921875000001
1520531468534306223, 0.2822950755483993, -0.018375811521546746, 0.0782969360483296, -1.09452392578125, -0.48618896484375, 10.084229736328126
1520531468539321223, 0.2881540299465736, -0.01384843766841204, 0.07696535550328999, -1.117276611328125, -0.5316943359375, 10.163265380859375
1520531468544337223, 0.29321403601772417, -0.010918960469324878, 0.07456851052221868, -1.1639794921875, -0.523311767578125, 10.196795654296876
1520531468549353223, 0.2966761454348272, -0.007723167161229791, 0.07137271721412358, -1.1639794921875, -0.5568420410156251, 10.196795654296876
1520531468554369223, 0.300670887069946, -0.007989483270237714, 0.07190534943213944, -1.095721435546875, -0.5891748046875, 10.184820556640625
1520531468559384223, 0.3017361515059777, -0.013315805450396193, 0.07297061386817114, -1.0681787109375, -0.5604345703125, 10.232720947265625
1520531468564400223, 0.30333404816002524, -0.01864212763055467, 0.07350324608618698, -1.06099365234375, -0.549656982421875, 10.286608886718751
1520531468569416223, 0.3073287897951441, -0.02636529479178446, 0.07776430383031376, -1.08494384765625, -0.5269042968750001, 10.333311767578126
1520531468574432223, 0.3115898475392709, -0.0346210941710301, 0.08122641324741676, -1.0753637695312501, -0.51971923828125, 10.33450927734375
1520531468579448223, 0.3105245831032392, -0.044741106313331204, 0.08548747099154355, -1.064586181640625, -0.55564453125, 10.38719970703125
1520531468584464223, 0.311323531430263, -0.04846953183944214, 0.08868326429963864, -1.08015380859375, -0.5783972167968751, 10.431507568359375
1520531468589479223, 0.31025826699423126, -0.04607268685837083, 0.09081379317170203, -1.146016845703125, -0.5269042968750001, 10.438692626953125
1520531468594495223, 0.3097256347762154, -0.03994741635118858, 0.08868326429963864, -1.2202624511718752, -0.439486083984375, 10.37282958984375
1520531468599511223, 0.31025826699423126, -0.02849582366384785, 0.08681905153658317, -1.2669653320312502, -0.36164794921875004, 10.368039550781251
1520531468604526223, 0.3091930025581996, -0.010918960469324878, 0.08362325822848808, -1.28612548828125, -0.31374755859375003, 10.3704345703125
1520531468609542223, 0.304132996487049, 0.008788431597261486, 0.07803061993932169, -1.28612548828125, -0.319735107421875, 10.342891845703125
1520531468614557223, 0.29774140987085884, 0.030360036426903318, 0.07297061386817114, -1.2969030761718752, -0.28021728515625, 10.316546630859376
1520531468619574223, 0.28842034605558153, 0.05033374460249761, 0.06844324001503643, -1.282532958984375, -0.26584716796875, 10.266251220703126
1520531468624589223, 0.27909928224030417, 0.06711165946999681, 0.06551376281594927, -1.234632568359375, -0.24069946289062502, 10.25068359375
1520531468629606223, 0.2676476895529635, 0.08362325822848808, 0.06338323394388587, -1.169967041015625, -0.197589111328125, 10.297386474609375
1520531468634620223, 0.2545982002115752, 0.0905474770626941, 0.06098638896281456, -1.1520043945312501, -0.154478759765625, 10.375224609375001
1520531468639637223, 0.23489080814498883, 0.09534116702483673, 0.062317969507854176, -1.0921289062500001, -0.17004638671875, 10.414742431640626
1520531468644652223, 0.21811289327748962, 0.10093380531400313, 0.06684534336098888, -1.0837463378906251, -0.20357666015625, 10.474617919921876
1520531468649667223, 0.19494339179380024, 0.10626012749416161, 0.06711165946999681, -1.028660888671875, -0.247884521484375, 10.5524560546875
1520531468654684223, 0.1699096775470554, 0.11025486912928047, 0.07084008499610774, -1.00830322265625, -0.276624755859375, 10.607541503906251
1520531468659699223, 0.1440770149732868, 0.11451592687340725, 0.07110640110511567, -0.996328125, -0.28500732421875, 10.64107177734375
1520531468664715223, 0.11717908796348649, 0.11904330072654196, 0.06950850445106813, -1.033450927734375, -0.29338989257812503, 10.6578369140625
1520531468669731223, 0.08868326429963864, 0.12117382959860534, 0.06684534336098888, -1.009500732421875, -0.276624755859375, 10.681787109375001
1520531468674747223, 0.05938849230876701, 0.12197277792562912, 0.06418218227090965, -0.987945556640625, -0.26225463867187504, 10.7536376953125
1520531468679763223, 0.030093720317895395, 0.11691277185447857, 0.062317969507854176, -1.07296875, -0.32332763671875003, 10.809920654296876
1520531468684779223, -0.002663161090079238, 0.1094559208022567, 0.05858954398174324, -1.0777587890625, -0.33410522460937503, 10.8206982421875
1520531468689793223, -0.035153726389045944, 0.09880327644193974, 0.05273058958356892, -1.02746337890625, -0.316142578125, 10.884166259765626
1520531468694809223, -0.06631271114297303, 0.09294432204376542, 0.04926848016646591, -0.9568103027343751, -0.276624755859375, 10.906918945312501
1520531468699826223, -0.09587379924285258, 0.09134642538971788, 0.04953479627547384, -0.908909912109375, -0.199984130859375, 10.969189453125
1520531468704841223, -0.12916331286884306, 0.09241168982574957, 0.05246427347456099, -1.0346484375, -0.13651611328125002, 11.001522216796875
1520531468709857223, -0.16218651038582563, 0.08948221262666241, 0.05033374460249761, -1.0585986328125, -0.09580078125000001, 11.05301513671875
1520531468714872223, -0.19494339179380024, 0.08069378102940092, 0.04607268685837083, -1.0346484375, -0.06945556640625, 11.054212646484375
1520531468719889223, -0.2290318537468145, 0.07669903939428206, 0.0468716351853946, -1.021475830078125, -0.05987548828125, 11.019484863281251
1520531468724904223, -0.2639192640268525, 0.06950850445106813, 0.0468716351853946, -1.0011181640625, -0.07544311523437501, 11.023077392578125
1520531468729920223, -0.29534456488978755, 0.06471481448892549, 0.046605319076386674, -0.9735754394531251, -0.09819580078125001, 10.972781982421875
1520531468734936223, -0.32437302077165125, 0.06205165339884625, 0.04633900296737875, -1.05620361328125, -0.07903564453125, 10.905721435546875
1520531468739951223, -0.3552656894165704, 0.0625842856168621, 0.04846953183944214, -1.044228515625, -0.164058837890625, 10.891351318359376
1520531468744967223, -0.3821636164263707, 0.06498113059793342, 0.0468716351853946, -1.107696533203125, -0.20118164062500002, 10.86620361328125
1520531468749983223, -0.41012680787220274, 0.06684534336098888, 0.04287689355027574, -1.117276611328125, -0.288599853515625, 10.865006103515626
1520531468754999223, -0.4364921026639872, 0.06711165946999681, 0.036218990825077645, -1.129251708984375, -0.358055419921875, 10.8590185546875
1520531468760014223, -0.461525816910732, 0.06444849837991756, 0.030360036426903318, -1.12326416015625, -0.43110351562500004, 10.857821044921875
1520531468765029223, -0.4836300539583897, 0.05645901510967986, 0.022370553156665602, -1.1053015136718751, -0.48020141601562505, 10.802735595703126
1520531468770047223, -0.5057342910060474, 0.049002164057457984, 0.01384843766841204, -1.055006103515625, -0.49097900390625004, 10.7632177734375
1520531468775062223, -0.5254416830726337, 0.04101268078722027, 0.008522115488253563, -0.9903405761718751, -0.504151611328125, 10.71052734375
1520531468780078223, -0.5390238046320378, 0.032756881407974635, 0.005858954398174325, -1.005908203125, -0.4981640625, 10.651849365234376
1520531468785093223, -0.5504753973193786, 0.025300030355752765, 0.0, -0.978365478515625, -0.46343627929687503, 10.5907763671875
1520531468790108223, -0.5563343517175529, 0.021038972611625982, -0.00026631610900792384, -0.996328125, -0.477806396484375, 10.44228515625
1520531468795124223, -0.5568669839355688, 0.016245282649483356, 0.003728425526110934, -1.01788330078125, -0.508941650390625, 10.32492919921875
1520531468800141223, -0.552339610082434, 0.011185276578332801, 0.004527373853134706, -1.0837463378906251, -0.549656982421875, 10.260263671875
1520531468805156223, -0.5379585401960062, 0.0055926382891664005, 0.005060006071150553, -1.146016845703125, -0.6562353515625, 10.182425537109376
1520531468810172223, -0.5193164125654515, 0.0, 0.003728425526110934, -1.14242431640625, -0.7137158203125, 10.14769775390625
1520531468815187223, -0.4985437560628334, -0.009587379924285258, 0.0007989483270237715, -1.1831396484375, -0.7939489746093751, 10.174042968750001
1520531468820203223, -0.46845003574493804, -0.011185276578332801, -0.00346210941710301, -1.189127197265625, -0.8669970703125001, 10.1979931640625
1520531468825219223, -0.4364921026639872, -0.014114753777419964, -0.011185276578332801, -1.24780517578125, -0.8286767578125, 10.17164794921875
1520531468830236223, -0.40293627292898876, -0.01464738599543581, -0.021038972611625982, -1.265767822265625, -0.8178991699218751, 10.092612304687501
1520531468835252223, -0.367249914321927, -0.012783173232380344, -0.031158984753927088, -1.249002685546875, -0.7831713867187501, 10.0638720703125
1520531468840266223, -0.33023197516982555, -0.014381069886427887, -0.03568635860706179, -1.16158447265625, -0.7256909179687501, 10.033934326171876
1520531468845281223, -0.2905508749276449, -0.013315805450396193, -0.042077945223251964, -1.13763427734375, -0.7065307617187501, 10.049501953125
1520531468850299223, -0.24740766526836125, -0.014381069886427887, -0.044741106313331204, -1.107696533203125, -0.7173083496093751, 9.988428955078126
1520531468855314223, -0.2066613005901489, -0.017576863194522972, -0.04447479020432328, -1.1603869628906252, -0.746048583984375, 9.9393310546875
1520531468860330223, -0.16804546478399995, -0.023968449810713145, -0.04500742242233913, -1.1987072753906252, -0.77359130859375, 9.93214599609375
1520531468865345223, -0.12783173232380343, -0.030360036426903318, -0.04873584794845006, -1.18074462890625, -0.825084228515625, 9.886640625
1520531468870361223, -0.08761799986360694, -0.029561088099879545, -0.05379585401960062, -1.20948486328125, -0.8921447753906251, 9.847122802734376
1520531468875377223, -0.04767058351241837, -0.026631610900792385, -0.05645901510967986, -1.2502001953125002, -0.920885009765625, 9.832752685546875
1520531468880393223, -0.009054747706269411, -0.02077265650261806, -0.062317969507854176, -1.2418176269531251, -0.978365478515625, 9.86508544921875
1520531468885409223, 0.02769687533682408, -0.014381069886427887, -0.0692421883420602, -1.292113037109375, -0.968785400390625, 9.878258056640625
1520531468890424223, 0.061519021180830406, -0.003728425526110934, -0.07669903939428206, -1.312470703125, -1.031055908203125, 9.853110351562501
1520531468895439223, 0.09534116702483673, 0.004261057744126781, -0.09081379317170203, -1.4082714843750002, -1.095721435546875, 9.839937744140625
1520531468900456223, 0.13022857730487475, 0.011185276578332801, -0.10759170803920123, -1.411864013671875, -1.1053015136718751, 9.801617431640626
1520531468905471223, 0.1629854587128494, 0.017044230976507126, -0.12596751956074798, -1.371148681640625, -1.129251708984375, 9.830357666015626
1520531468910488223, 0.19281286292173686, 0.023169501483689375, -0.14168016999221547, -1.270557861328125, -1.0681787109375, 9.844727783203126
1520531468915502223, 0.2247707960026877, 0.027430559227816155, -0.157392820423683, -1.213077392578125, -0.99393310546875, 9.947713623046875
1520531468920519223, 0.2559297807566148, 0.02716424311880823, -0.1675128325659841, -1.172362060546875, -0.929267578125, 10.069859619140626
1520531468925535223, 0.28309402387542304, 0.019707392066586366, -0.1699096775470554, -1.1448193359375, -0.7963439941406251, 10.163265380859375
1520531468930551223, 0.30466562870506486, 0.01171790879634865, -0.16911072922003165, -1.08973388671875, -0.72090087890625, 10.268646240234375
1520531468935565223, 0.32357407244462744, 0.001597896654047543, -0.16218651038582563, -1.04183349609375, -0.63468017578125, 10.332114257812501
1520531468940582223, 0.3363572456770078, -0.007190534943213944, -0.14940333715344528, -1.071771240234375, -0.56282958984375, 10.4374951171875
1520531468945597223, 0.346210941710301, -0.016777914867499202, -0.13369068672197776, -1.0837463378906251, -0.54366943359375, 10.459050292968751
1520531468950613223, 0.3552656894165704, -0.024501082028728992, -0.11717908796348649, -1.1268566894531251, -0.49217651367187504, 10.544073486328125
1520531468955630223, 0.3563309538526021, -0.029561088099879545, -0.09960222476896352, -1.1005114746093752, -0.43230102539062504, 10.606343994140625
1520531468960645223, 0.3542004249805387, -0.029561088099879545, -0.08255799379245639, -1.169967041015625, -0.43349853515625003, 10.70813232421875
1520531468965659223, 0.3451456772742693, -0.028762139772855775, -0.06791060779702057, -1.1771520996093752, -0.40356079101562503, 10.793155517578125
1520531468970677223, 0.3312972396058573, -0.026631610900792385, -0.05406217012860854, -1.16158447265625, -0.377215576171875, 10.8446484375
1520531468975691223, 0.3131877441933184, -0.02716424311880823, -0.0402137324601965, -1.119671630859375, -0.37362304687500003, 10.8446484375
1520531468980708223, 0.2980077259798668, -0.022636869265673525, -0.02636529479178446, -1.14242431640625, -0.350870361328125, 10.811118164062501
1520531468985723223, 0.2759034889322091, -0.021305288720633905, -0.014114753777419964, -1.1388317871093752, -0.30177246093750004, 10.801538085937501
1520531468990739223, 0.2545982002115752, -0.01944107595757844, -0.001597896654047543, -1.169967041015625, -0.29219238281250004, 10.836265869140625
1520531468995754223, 0.22956448596483034, -0.016777914867499202, 0.01384843766841204, -1.148411865234375, -0.300574951171875, 10.881771240234375
1520531469000772223, 0.2021339267370142, -0.019707392066586366, 0.026631610900792385, -1.150806884765625, -0.300574951171875, 10.886561279296876
1520531469005787223, 0.17124125809209503, -0.024501082028728992, 0.03808320358813311, -1.1603869628906252, -0.36164794921875004, 10.90452392578125
1520531469010803223, 0.14061490555618378, -0.02982740420888747, 0.04527373853134705, -1.1687695312500002, -0.37242553710937504, 10.888956298828125
1520531469015817223, 0.11158644967432009, -0.032756881407974635, 0.051665325147537224, -1.136436767578125, -0.389190673828125, 10.903326416015625
1520531469020834223, 0.08096009713840885, -0.032756881407974635, 0.056192699000671927, -1.06578369140625, -0.437091064453125, 10.874586181640625
1520531469025850223, 0.04953479627547384, -0.02769687533682408, 0.06098638896281456, -1.159189453125, -0.41074584960937505, 10.8877587890625
1520531469030865223, 0.01651159875849128, -0.026098978682776535, 0.06018744063579079, -1.23822509765625, -0.36164794921875004, 10.867401123046875
1520531469035882223, -0.014114753777419964, -0.026098978682776535, 0.05645901510967986, -1.210682373046875, -0.346080322265625, 10.839858398437501
1520531469040897223, -0.049002164057457984, -0.025300030355752765, 0.05432848623761646, -1.179547119140625, -0.365240478515625, 10.956016845703125
1520531469045912223, -0.08442220655551186, -0.022370553156665602, 0.056192699000671927, -1.098116455078125, -0.40356079101562503, 10.953621826171876
1520531469050929223, -0.11877698461753403, -0.017843179303530896, 0.06018744063579079, -1.090931396484375, -0.477806396484375, 10.960806884765626
1520531469055945223, -0.15419702711558791, -0.014381069886427887, 0.0625842856168621, -1.031055908203125, -0.566422119140625, 10.967991943359376
1520531469060960223, -0.18695390852356253, -0.0029294771990871623, 0.06870955612404435, -0.983155517578125, -0.61072998046875, 10.997929687500001
1520531469065975223, -0.22184131880360056, 0.00692421883420602, 0.0782969360483296, -1.004710693359375, -0.689765625, 11.035052490234376
1520531469070991223, -0.2532666196665356, 0.018908443739562592, 0.08202536157444054, -1.1220666503906251, -0.6741979980468751, 11.059002685546876
1520531469076007223, -0.28069717889435175, 0.025832662573768612, 0.08735168375459902, -0.980760498046875, -0.67779052734375, 11.020682373046876
1520531469081024223, -0.30466562870506486, 0.030892668644919165, 0.09560748313384466, -0.8622070312500001, -0.7448510742187501, 10.97158447265625
1520531469086039223, -0.32676986575272254, 0.03328951362599048, 0.10626012749416161, -0.827479248046875, -0.7448510742187501, 10.8973388671875
1520531469091055223, -0.3403519873121267, 0.03488741028003802, 0.11558119130943895, -1.01309326171875, -0.671802978515625, 10.835068359375
1520531469096070223, -0.35127094778145157, 0.03328951362599048, 0.11638013963646272, -1.124461669921875, -0.566422119140625, 10.702144775390625
1520531469101086223, -0.35952674716069716, 0.027963191445832, 0.11265171411035178, -1.16158447265625, -0.513731689453125, 10.579998779296876
1520531469106102223, -0.36245622435978436, 0.01864212763055467, 0.10679275971217746, -1.1903247070312502, -0.49217651367187504, 10.453062744140626
1520531469111117223, -0.36671728210391114, 0.01038632825130903, 0.09640643146086843, -1.201102294921875, -0.504151611328125, 10.450667724609376
1520531469116133223, -0.3696467593029983, -0.007989483270237714, 0.09001484484467825, -1.1220666503906251, -0.525706787109375, 10.445877685546876
1520531469121150223, -0.3709783398480379, -0.030360036426903318, 0.08948221262666241, -1.0669812011718751, -0.62031005859375, 10.407557373046876
1520531469126164223, -0.36831517875795866, -0.05246427347456099, 0.09081379317170203, -1.026265869140625, -0.7065307617187501, 10.354866943359376
1520531469131180223, -0.3656520176678794, -0.07030745277809189, 0.09640643146086843, -1.0202783203125, -0.7903564453125, 10.34887939453125
1520531469136196223, -0.36298885657780017, -0.08255799379245639, 0.10226538585904275, -0.996328125, -0.871787109375, 10.32971923828125
1520531469141212223, -0.3547330571985546, -0.0972053797878922, 0.10865697247523293, -1.05620361328125, -0.942440185546875, 10.32492919921875
1520531469146227223, -0.34834147058236437, -0.10892328858424084, 0.11531487520043102, -0.9843530273437501, -0.983155517578125, 10.3848046875
1520531469151243223, -0.3384877745490712, -0.1150485590914231, 0.12223909403463704, -1.038240966796875, -1.0370434570312501, 10.32732421875
1520531469156260223, -0.3254382852076829, -0.12197277792562912, 0.1251685712337242, -1.13284423828125, -1.0023156738281251, 10.316546630859376
1520531469161275223, -0.30812773812216787, -0.1318264739589223, 0.12463593901570835, -1.1735595703125001, -0.9496252441406251, 10.350076904296875
1520531469166290223, -0.2916161393636766, -0.13875069279312832, 0.12676646788777174, -1.1220666503906251, -0.890947265625, 10.406359863281251
1520531469171307223, -0.2751045406051853, -0.14354438275527096, 0.1251685712337242, -1.057401123046875, -0.8765771484375, 10.400372314453126
1520531469176322223, -0.2591255740647099, -0.1419464861012234, 0.12250541014364497, -1.1388317871093752, -0.8837622070312501, 10.423125
1520531469181338223, -0.23728765312606015, -0.13875069279312832, 0.11797803629051026, -1.22385498046875, -0.8346643066406251, 10.473420410156251
1520531469186353223, -0.22290658323963225, -0.13928332501114415, 0.1059938113851537, -1.141226806640625, -0.841849365234375, 10.450667724609376
1520531469191369223, -0.2066613005901489, -0.13342437061296986, 0.09693906367888427, -1.13763427734375, -0.861009521484375, 10.413544921875001
1520531469196385223, -0.1901497018316576, -0.12676646788777174, 0.08735168375459902, -1.12805419921875, -0.8370593261718751, 10.409952392578125
1520531469201401223, -0.17150757420110296, -0.12144014570761327, 0.07856325215733753, -1.148411865234375, -0.85023193359375, 10.369237060546876
1520531469206417223, -0.15872440096872262, -0.12144014570761327, 0.07190534943213944, -1.117276611328125, -0.8921447753906251, 10.34408935546875
1520531469211432223, -0.14354438275527096, -0.11558119130943895, 0.0636495500528938, -1.1927197265625, -0.85502197265625, 10.388397216796875
1520531469216447223, -0.13022857730487475, -0.11877698461753403, 0.04980111238448176, -1.2969030761718752, -0.79754150390625, 10.292596435546875
1520531469221463223, -0.12357067457967666, -0.12223909403463704, 0.03755057137011726, -1.2022998046875, -0.8095166015625, 10.251881103515625
1520531469226479223, -0.11238539800134385, -0.1241033067976925, 0.029561088099879545, -1.114881591796875, -0.852626953125, 10.233918457031251
1520531469231496223, -0.1073253919301933, -0.12650015177876384, 0.021837920938649755, -1.028660888671875, -0.9352551269531251, 10.259066162109375
1520531469236512223, -0.10040117309598728, -0.12942962897785099, 0.021038972611625982, -1.011895751953125, -1.0322534179687501, 10.2746337890625
1520531469241527223, -0.09454221869781296, -0.13156015784991437, 0.017044230976507126, -0.9604028320312501, -1.08494384765625, 10.326126708984376
1520531469246541223, -0.08735168375459902, -0.13502226726701738, 0.011984224905356573, -0.944835205078125, -1.124461669921875, 10.338101806640626
1520531469251559223, -0.08522115488253562, -0.13502226726701738, 0.008788431597261486, -0.9113049316406251, -1.18553466796875, 10.364447021484375
1520531469256575223, -0.0782969360483296, -0.13209279006793023, 0.006125270507182248, -0.9304650878906251, -1.222657470703125, 10.321336669921875
1520531469261591223, -0.07217166554114736, -0.12223909403463704, -0.001331580545039619, -0.95082275390625, -1.253792724609375, 10.285411376953126
1520531469266605223, -0.06471481448892549, -0.11291803021935971, -0.008522115488253563, -0.9627978515625001, -1.2693603515625, 10.215955810546875
1520531469271621223, -0.060720072853806636, -0.1027980180770586, -0.013315805450396193, -0.9005273437500001, -1.2669653320312502, 10.283016357421875
1520531469276637223, -0.05406217012860854, -0.09001484484467825, -0.019707392066586366, -0.9352551269531251, -1.332828369140625, 10.342891845703125
1520531469281654223, -0.04527373853134705, -0.07909588437535338, -0.026631610900792385, -0.93645263671875, -1.2981005859375, 10.345286865234376
1520531469286669223, -0.03941478413317273, -0.0759000910672583, -0.03408846195301425, -0.9568103027343751, -1.249002685546875, 10.360854492187501
1520531469291684223, -0.037816887479125184, -0.06950850445106813, -0.04154531300523612, -0.959205322265625, -1.2286450195312502, 10.3895947265625
1520531469296699223, -0.030892668644919165, -0.06018744063579079, -0.04713795129440252, -0.97477294921875, -1.2466076660156251, 10.357261962890625
1520531469301717223, -0.02476739813773692, -0.04873584794845006, -0.05246427347456099, -0.9795629882812501, -1.2370275878906252, 10.36564453125
1520531469306731223, -0.01731054708551505, -0.038615835806148954, -0.05459480234662439, -0.9077124023437501, -1.251397705078125, 10.39677978515625
1520531469311747223, -0.010918960469324878, -0.029561088099879545, -0.0513990090385293, -0.8214916992187501, -1.3016931152343751, 10.407557373046876
1520531469316763223, -0.003994741635118857, -0.023702133701705222, -0.04846953183944214, -0.769998779296875, -1.3915063476562501, 10.400372314453126
1520531469321780223, 0.0023968449810713144, -0.020240024284602212, -0.044741106313331204, -0.7328759765625, -1.389111328125, 10.38240966796875
1520531469326795223, 0.009587379924285258, -0.018109495412538822, -0.03941478413317273, -0.7556286621093751, -1.3531860351562501, 10.342891845703125
1520531469331811223, 0.019707392066586366, -0.017044230976507126, -0.03408846195301425, -0.7723937988281251, -1.2981005859375, 10.339299316406251
1520531469336826223, 0.02769687533682408, -0.018908443739562592, -0.02822950755483993, -0.7556286621093751, -1.234632568359375, 10.3800146484375
1520531469341842223, 0.03568635860706179, -0.025033714246744842, -0.021305288720633905, -0.767603759765625, -1.229842529296875, 10.369237060546876
1520531469346857223, 0.04420847409531536, -0.02849582366384785, -0.014381069886427887, -0.7879614257812501, -1.2118798828125001, 10.353669433593751
1520531469351873223, 0.05379585401960062, -0.03542004249805387, -0.009853696033293183, -0.75922119140625, -1.1867321777343751, 10.321336669921875
1520531469356890223, 0.0625842856168621, -0.037816887479125184, -0.003994741635118857, -0.762813720703125, -1.1651770019531251, 10.29139892578125
1520531469361905223, 0.07217166554114736, -0.038615835806148954, -0.003728425526110934, -0.808319091796875, -1.1064990234375, 10.294991455078126
1520531469366921223, 0.08202536157444054, -0.039681100242180654, -0.006391586616190172, -0.8071215820312501, -1.093326416015625, 10.321336669921875
1520531469371937223, 0.09294432204376542, -0.040480048569204424, -0.006391586616190172, -0.76880126953125, -1.04662353515625, 10.339299316406251
1520531469376952223, 0.10626012749416161, -0.042077945223251964, -0.007190534943213944, -0.7556286621093751, -1.021475830078125, 10.309361572265626
1520531469381969223, 0.11744540407249442, -0.04607268685837083, -0.011451592687340724, -0.7771838378906251, -1.004710693359375, 10.275831298828125
1520531469386984223, 0.12889699675983513, -0.04846953183944214, -0.013582121559404116, -0.7963439941406251, -0.9903405761718751, 10.290201416015625
1520531469391999223, 0.13981595722916002, -0.04980111238448176, -0.01597896654047543, -0.7999365234375, -0.9975256347656251, 10.317744140625
1520531469397015223, 0.1531317626795562, -0.05193164125654515, -0.018375811521546746, -0.765208740234375, -0.9735754394531251, 10.271041259765626
1520531469402032223, 0.1653823036939207, -0.0513990090385293, -0.018375811521546746, -0.765208740234375, -0.9711804199218751, 10.285411376953126
1520531469407048223, 0.17976337358034858, -0.05193164125654515, -0.016777914867499202, -0.7879614257812501, -0.963995361328125, 10.36324951171875
1520531469412063223, 0.19467707568479234, -0.05060006071150553, -0.013315805450396193, -0.8155041503906251, -0.9328601074218751, 10.34887939453125
1520531469417078223, 0.2077265650261806, -0.048203215730434214, -0.009853696033293183, -0.858614501953125, -0.9220825195312501, 10.342891845703125
1520531469422094223, 0.2199771060405451, -0.045540054640354974, -0.009587379924285258, -0.8957373046875, -0.9005273437500001, 10.345286865234376
1520531469427110223, 0.2322276470549096, -0.037017939152101415, -0.012250541014364496, -0.980760498046875, -0.9304650878906251, 10.316546630859376
1520531469432125223, 0.24288029141522655, -0.026098978682776535, -0.018908443739562592, -0.9735754394531251, -0.9711804199218751, 10.345286865234376
1520531469437141223, 0.2503371424674484, -0.014913702104443736, -0.025033714246744842, -0.9029223632812501, -0.99393310546875, 10.435100097656251
1520531469442157223, 0.2580603096286782, -0.007456851052221868, -0.029561088099879545, -0.86939208984375, -0.942440185546875, 10.432705078125
1520531469447172223, 0.2636529479178446, -0.0021305288720633907, -0.034354778062022175, -0.940045166015625, -0.9136999511718751, 10.391989746093751
1520531469452188223, 0.26658242511693175, -0.00346210941710301, -0.03941478413317273, -0.9927355957031251, -0.8861572265625001, 10.413544921875001
1520531469457205223, 0.26631610900792385, -0.0023968449810713144, -0.043143209659283664, -0.9927355957031251, -0.9220825195312501, 10.359656982421875
1520531469462220223, 0.26658242511693175, 0.0005326322180158477, -0.04713795129440252, -1.0394384765625, -0.968785400390625, 10.347681884765626
1520531469467236223, 0.26658242511693175, 0.007190534943213944, -0.05779059565471947, -1.0454260253906251, -1.063388671875, 10.342891845703125
1520531469472252223, 0.26658242511693175, 0.02077265650261806, -0.0692421883420602, -1.011895751953125, -1.064586181640625, 10.33450927734375
1520531469477268223, 0.2591255740647099, 0.037816887479125184, -0.07403587830420283, -0.9927355957031251, -1.12326416015625, 10.3129541015625
1520531469482284223, 0.25086977468546423, 0.0636495500528938, -0.07749798772130584, -0.9819580078125001, -1.174757080078125, 10.353669433593751
1520531469487299223, 0.2436792397422503, 0.09001484484467825, -0.0814927293564247, -0.9568103027343751, -1.1987072753906252, 10.376422119140626
1520531469492314223, 0.2346244920359809, 0.111852765783328, -0.08175904546543261, -0.899329833984375, -1.251397705078125, 10.473420410156251
1520531469497330223, 0.223705531566656, 0.13022857730487475, -0.07616640717626622, -0.868194580078125, -1.2693603515625, 10.548863525390626
1520531469502346223, 0.20799288113518852, 0.1464738599543581, -0.07004113666908397, -0.8538244628906251, -1.30528564453125, 10.593171386718751
1520531469507361223, 0.19494339179380024, 0.1619201942768177, -0.06498113059793342, -0.871787109375, -1.316063232421875, 10.5141357421875
1520531469512377223, 0.18056232190737237, 0.17949705747134068, -0.0569916473276957, -0.920885009765625, -1.32444580078125, 10.585986328125001
1520531469517393223, 0.16032229762277014, 0.20426445560907758, -0.05060006071150553, -0.8514294433593751, -1.33402587890625, 10.594368896484376
1520531469522410223, 0.14327806664626302, 0.2157160482964183, -0.04154531300523612, -0.7340734863281251, -1.328038330078125, 10.469827880859375
1520531469527425223, 0.1251685712337242, 0.2189118416045134, -0.02716424311880823, -0.7580236816406251, -1.28612548828125, 10.486593017578125
1520531469532441223, 0.10572749527614576, 0.2189118416045134, -0.011185276578332801, -0.87897216796875, -1.2502001953125002, 10.558443603515625
1520531469537457223, 0.0860201032095594, 0.22503711211169564, -0.001331580545039619, -0.99393310546875, -1.210682373046875, 10.5907763671875
1520531469542472223, 0.06657902725198096, 0.2300971181828462, 0.004793689962142629, -1.06578369140625, -1.1388317871093752, 10.529703369140625
1520531469547487223, 0.04633900296737875, 0.23595607258102053, 0.009587379924285258, -1.00351318359375, -1.1136840820312501, 10.5380859375
1520531469552505223, 0.02636529479178446, 0.24181502697919485, 0.01464738599543581, -0.8765771484375, -1.119671630859375, 10.556048583984376
1520531469557519223, 0.005326322180158476, 0.24341292363324238, 0.020506340393610135, -0.861009521484375, -1.06578369140625, 10.562036132812501
1520531469562535223, -0.01384843766841204, 0.2458097686143137, 0.0234358175926973, -0.920885009765625, -1.052611083984375, 10.6578369140625
1520531469567551223, -0.03328951362599048, 0.241282394761179, 0.023968449810713145, -0.961600341796875, -0.987945556640625, 10.68418212890625
1520531469572567223, -0.05512743456464023, 0.23062975040086203, 0.022370553156665602, -0.961600341796875, -0.9376501464843751, 10.733280029296875
1520531469577583223, -0.07616640717626622, 0.21518341607840247, 0.020240024284602212, -0.899329833984375, -0.884959716796875, 10.795550537109376
1520531469582599223, -0.10040117309598728, 0.1989381334289191, 0.019174759848570515, -0.8514294433593751, -0.8382568359375, 10.807525634765625
1520531469587614223, -0.12383699068868459, 0.1821602185614199, 0.018375811521546746, -0.871787109375, -0.784368896484375, 10.835068359375
1520531469592630223, -0.14807175660840566, 0.16405072314888108, 0.020240024284602212, -0.9580078125, -0.7448510742187501, 10.838660888671875
1520531469597645223, -0.1744370514001901, 0.15020228548046904, 0.017843179303530896, -1.009500732421875, -0.731678466796875, 10.85662353515625
1520531469602661223, -0.1976065528838795, 0.13502226726701738, 0.014114753777419964, -1.0011181640625, -0.722098388671875, 10.853031005859375
1520531469607677223, -0.22050973825856093, 0.12117382959860534, 0.01038632825130903, -0.980760498046875, -0.7556286621093751, 10.79914306640625
1520531469612692223, -0.24873924581340087, 0.10572749527614576, 0.012516857123372421, -0.9077124023437501, -0.822689208984375, 10.718909912109375
1520531469617709223, -0.2748382244961774, 0.0814927293564247, 0.018109495412538822, -0.8454418945312501, -0.923280029296875, 10.71771240234375
1520531469622724223, -0.29774140987085884, 0.05858954398174324, 0.030360036426903318, -0.8382568359375, -0.91729248046875, 10.7296875
1520531469627741223, -0.32144354357256405, 0.03142530086293501, 0.0468716351853946, -0.85502197265625, -0.91729248046875, 10.687774658203125
1520531469632756223, -0.34354778062022173, 0.004261057744126781, 0.06205165339884625, -0.899329833984375, -0.882564697265625, 10.63388671875
1520531469637772223, -0.3675162304309349, -0.021305288720633905, 0.07510114274023452, -0.9436376953125001, -0.85502197265625, 10.620714111328125
1520531469642788223, -0.38269624864438656, -0.04367584187729951, 0.08681905153658317, -0.97716796875, -0.85981201171875, 10.611134033203125
1520531469647802223, -0.3928162607866877, -0.060720072853806636, 0.0905474770626941, -0.9735754394531251, -0.89334228515625, 10.51653076171875
1520531469652819223, -0.4034689051470046, -0.07483482663122659, 0.09427590258880504, -0.9867480468750001, -0.9220825195312501, 10.5428759765625
1520531469657835223, -0.405599434019068, -0.08788431597261487, 0.09560748313384466, -0.978365478515625, -0.98914306640625, 10.44228515625
1520531469662850223, -0.40480048569204424, -0.09747169589690012, 0.09906959255094767, -0.9675878906250001, -1.0490185546875002, 10.390792236328126
1520531469667866223, -0.402137324601965, -0.11078750134729631, 0.10519486305812992, -0.929267578125, -1.1268566894531251, 10.336904296875
1520531469672881223, -0.3962783702037907, -0.12357067457967666, 0.11664645574547064, -0.8669970703125001, -1.2250524902343751, 10.26984375
1520531469677897223, -0.38669099027950543, -0.13688648003007287, 0.1262338356697559, -0.8753796386718751, -1.2849279785156251, 10.199190673828125
1520531469682914223, -0.37816887479125183, -0.14674017606336603, 0.13928332501114415, -0.9903405761718751, -1.32444580078125, 10.261461181640625
1520531469687928223, -0.36698359821291904, -0.15499597544261168, 0.14913702104443735, -1.0969189453125001, -1.325643310546875, 10.099797363281251
1520531469692945223, -0.3518035799994674, -0.16032229762277014, 0.1510012338074928, -1.04183349609375, -1.316063232421875, 10.0351318359375
1520531469697960223, -0.3342267168049444, -0.15872440096872262, 0.15153386602550867, -0.9328601074218751, -1.368753662109375, 10.084229736328126
1520531469702977223, -0.31558458917438975, -0.14700649217237396, 0.15419702711558791, -1.00830322265625, -1.34360595703125, 10.050699462890625
1520531469707992223, -0.29001824270962906, -0.13555489948503324, 0.15499597544261168, -1.069376220703125, -1.292113037109375, 9.980046386718751
1520531469713007223, -0.2668487412259397, -0.1262338356697559, 0.1507349176984849, -1.021475830078125, -1.2466076660156251, 10.026749267578126
1520531469718023223, -0.24234765919721069, -0.11797803629051026, 0.14221280221023133, -0.9496252441406251, -1.2669653320312502, 10.075847167968751
1520531469723040223, -0.21305288720633908, -0.1073253919301933, 0.13502226726701738, -0.9568103027343751, -1.2370275878906252, 10.072254638671875
1520531469728056223, -0.1845570635424912, -0.09693906367888427, 0.12703278399677967, -0.96998291015625, -1.208287353515625, 10.084229736328126
1520531469733071223, -0.15419702711558791, -0.08735168375459902, 0.1150485590914231, -0.96998291015625, -1.201102294921875, 10.069859619140626
1520531469738086223, -0.12330435847066874, -0.07856325215733753, 0.09986854087797144, -0.93645263671875, -1.174757080078125, 10.08063720703125
1520531469743103223, -0.09241168982574957, -0.07563377495825037, 0.08362325822848808, -0.925675048828125, -1.19990478515625, 10.05908203125
1520531469748117223, -0.06045375674479871, -0.07030745277809189, 0.06657902725198096, -0.9029223632812501, -1.205892333984375, 10.031539306640626
1520531469753134223, -0.02982740420888747, -0.06391586616190172, 0.05273058958356892, -0.8813671875000001, -1.193917236328125, 10.047106933593751
1520531469758150223, -0.0007989483270237715, -0.05512743456464023, 0.04181162911424404, -0.961600341796875, -1.1951147460937501, 10.038724365234376
1520531469763165223, 0.02556634646476069, -0.04447479020432328, 0.03195793308095086, -1.0011181640625, -1.2214599609375, 10.098599853515626
1520531469768181223, 0.05432848623761646, -0.028762139772855775, 0.020506340393610135, -1.0071057128906251, -1.217867431640625, 10.153685302734376
1520531469773197223, 0.07989483270237716, -0.012250541014364496, 0.007456851052221868, -0.999920654296875, -1.2669653320312502, 10.1692529296875
1520531469778213223, 0.10546117916713783, 0.00026631610900792384, -0.003728425526110934, -0.9819580078125001, -1.302890625, 10.247091064453125
1520531469783229223, 0.12809804843281136, 0.00825579937924564, -0.007456851052221868, -0.87418212890625, -1.270557861328125, 10.30576904296875
1520531469788245223, 0.1464738599543581, 0.011451592687340724, -0.009853696033293183, -0.8071215820312501, -1.2645703125, 10.3512744140625
1520531469793260223, 0.16351809093086522, 0.011451592687340724, -0.007723167161229791, -0.8071215820312501, -1.2693603515625, 10.417137451171875
1520531469798275223, 0.17896442525332482, 0.004527373853134706, -0.001597896654047543, -0.7448510742187501, -1.244212646484375, 10.405162353515626
1520531469803292223, 0.19520970790280817, -0.00346210941710301, 0.003195793308095086, -0.750838623046875, -1.2166699218750001, 10.3848046875
1520531469808308223, 0.20186761062800626, -0.011185276578332801, 0.008788431597261486, -0.748443603515625, -1.205892333984375, 10.419532470703125
1520531469813323223, 0.20799288113518852, -0.01944107595757844, 0.011451592687340724, -0.795146484375, -1.1388317871093752, 10.391989746093751
1520531469818339223, 0.2146507838603866, -0.023702133701705222, 0.007456851052221868, -0.808319091796875, -1.157991943359375, 10.354866943359376
1520531469823355223, 0.2234392154576481, -0.02849582366384785, 0.0007989483270237715, -0.822689208984375, -1.141226806640625, 10.42552001953125
1520531469828371223, 0.2300971181828462, -0.03302319751698256, -0.005060006071150553, -0.7807763671875, -1.12326416015625, 10.441087646484375
1520531469833386223, 0.23728765312606015, -0.031158984753927088, -0.011185276578332801, -0.7640112304687501, -1.1472143554687502, 10.41114990234375
1520531469838402223, 0.24314660752423448, -0.030892668644919165, -0.01464738599543581, -0.726888427734375, -1.1687695312500002, 10.412347412109375
1520531469843418223, 0.25086977468546423, -0.031158984753927088, -0.016777914867499202, -0.7125183105468751, -1.1879296875, 10.409952392578125
1520531469848432223, 0.2535329357755435, -0.03302319751698256, -0.016245282649483356, -0.724493408203125, -1.13763427734375, 10.44947021484375
1520531469853450223, 0.2569950451926465, -0.03382214584400633, -0.014381069886427887, -0.718505859375, -1.107696533203125, 10.4470751953125
1520531469858465223, 0.26498452846288423, -0.0346210941710301, -0.01171790879634865, -0.760418701171875, -1.112486572265625, 10.474617919921876
1520531469863479223, 0.2679140056619714, -0.036218990825077645, -0.008788431597261486, -0.805924072265625, -1.10410400390625, 10.515333251953125
1520531469868496223, 0.2681803217709793, -0.035153726389045944, -0.007989483270237714, -0.844244384765625, -1.0681787109375, 10.536888427734375
1520531469873513223, 0.27004453453403476, -0.03408846195301425, -0.010652644360316953, -0.8190966796875, -1.071771240234375, 10.511740722656251
1520531469878529223, 0.2681803217709793, -0.03222424918995878, -0.013315805450396193, -0.846639404296875, -1.05141357421875, 10.473420410156251
1520531469883544223, 0.26658242511693175, -0.027963191445832, -0.013582121559404116, -0.8406518554687501, -1.031055908203125, 10.451865234375001
1520531469888559223, 0.2636529479178446, -0.02290318537468145, -0.01731054708551505, -0.85981201171875, -1.071771240234375, 10.364447021484375
1520531469893575223, 0.2583266257376861, -0.017576863194522972, -0.013315805450396193, -0.8454418945312501, -1.12805419921875, 10.37282958984375
1520531469898590223, 0.2527339874485197, -0.013315805450396193, -0.010918960469324878, -0.8131091308593751, -1.1639794921875, 10.413544921875001
1520531469903606223, 0.24767398137736918, -0.011185276578332801, -0.004527373853134706, -0.76880126953125, -1.2202624511718752, 10.433902587890625
1520531469908622223, 0.23728765312606015, -0.006125270507182248, 0.0005326322180158477, -0.75922119140625, -1.275347900390625, 10.459050292968751
1520531469913637223, 0.22983080207383827, -0.00026631610900792384, 0.005326322180158476, -0.849034423828125, -1.31965576171875, 10.4374951171875
1520531469918654223, 0.21971078993153717, 0.00692421883420602, 0.008522115488253563, -0.846639404296875, -1.28612548828125, 10.4087548828125
1520531469923670223, 0.20852551335320438, 0.016777914867499202, 0.007723167161229791, -0.8813671875000001, -1.28133544921875, 10.381212158203125
1520531469928685223, 0.2000033978649508, 0.02716424311880823, 0.0023968449810713144, -0.968785400390625, -1.217867431640625, 10.33450927734375
1520531469933702223, 0.1901497018316576, 0.03994741635118858, -0.005858954398174325, -0.9867480468750001, -1.213077392578125, 10.29618896484375
1520531469938717223, 0.18136127023439613, 0.047404267403410444, -0.01651159875849128, -1.0154882812500001, -1.172362060546875, 10.196795654296876
1520531469943732223, 0.17390441918217428, 0.05566006678265608, -0.02982740420888747, -0.9867480468750001, -1.141226806640625, 10.20038818359375
1520531469948747223, 0.16964336143804748, 0.06444849837991756, -0.043942157986307434, -0.947230224609375, -1.1005114746093752, 10.164462890625
1520531469953764223, 0.16804546478399995, 0.06870955612404435, -0.05539375067364816, -0.97477294921875, -1.0538085937500001, 10.099797363281251
1520531469958780223, 0.16911072922003165, 0.07030745277809189, -0.06897587223305228, -1.038240966796875, -0.9951306152343751, 10.01836669921875
1520531469963794223, 0.17283915474614256, 0.0737695621951949, -0.08522115488253562, -1.069376220703125, -0.925675048828125, 10.041119384765626
1520531469968812223, 0.17949705747134068, 0.07723167161229791, -0.10199906975003482, -1.063388671875, -0.861009521484375, 10.038724365234376
1520531469973828223, 0.18722022463257046, 0.08388957433749601, -0.12090751348959743, -0.996328125, -0.798739013671875, 10.050699462890625
1520531469978843223, 0.19600865622983193, 0.08761799986360694, -0.136353847812057, -0.9220825195312501, -0.769998779296875, 10.067464599609375
1520531469983859223, 0.2045307717180855, 0.08468852266451977, -0.1464738599543581, -0.8753796386718751, -0.798739013671875, 10.145302734375
1520531469988876223, 0.21331920331534698, 0.07323692997717905, -0.15126754991650074, -0.8454418945312501, -0.8178991699218751, 10.206375732421876
1520531469993890223, 0.2234392154576481, 0.05965480841777494, -0.14780544049939773, -0.827479248046875, -0.858614501953125, 10.2458935546875
1520531469998905223, 0.23196133094590166, 0.0468716351853946, -0.14168016999221547, -0.8370593261718751, -0.88855224609375, 10.225535888671876
1520531470003922223, 0.24181502697919485, 0.030892668644919165, -0.13235910617693813, -0.8346643066406251, -0.9053173828125001, 10.278226318359376
1520531470008936223, 0.2535329357755435, 0.017044230976507126, -0.11824435239951818, -0.841849365234375, -0.9148974609375, 10.283016357421875
1520531470013952223, 0.25939189017371783, 0.003728425526110934, -0.10359696640408238, -0.8622070312500001, -0.9376501464843751, 10.2363134765625
1520531470018969223, 0.265783476789908, -0.007989483270237714, -0.08894958040864656, -0.923280029296875, -0.88855224609375, 10.275831298828125
1520531470023986223, 0.2729740117331219, -0.015712650431467506, -0.07536745884924245, -0.959205322265625, -0.87418212890625, 10.29139892578125
1520531470029000223, 0.27883296613129627, -0.02210423704765768, -0.06684534336098888, -0.978365478515625, -0.880169677734375, 10.27702880859375
1520531470034016223, 0.28415928831145476, -0.023702133701705222, -0.05858954398174324, -0.918489990234375, -0.884959716796875, 10.309361572265626
1520531470039033223, 0.2870887655105419, -0.021305288720633905, -0.04420847409531536, -0.83586181640625, -0.904119873046875, 10.413544921875001
1520531470044049223, 0.28975192660062116, -0.02210423704765768, -0.033555829734998405, -0.86939208984375, -0.8574169921875, 10.40396484375
1520531470049063223, 0.2910835071456608, -0.02636529479178446, -0.021571604829641832, -0.910107421875, -0.789158935546875, 10.298583984375
1520531470054079223, 0.2892192943826053, -0.03755057137011726, -0.007190534943213944, -0.906514892578125, -0.73048095703125, 10.340496826171876
1520531470059095223, 0.29001824270962906, -0.043942157986307434, 0.004793689962142629, -0.8921447753906251, -0.7364685058593751, 10.40396484375
1520531470064110223, 0.2873550816195498, -0.04447479020432328, 0.013049489341388268, -0.95561279296875, -0.756826171875, 10.43989013671875
1520531470069126223, 0.28469192052947057, -0.04181162911424404, 0.015446334322459582, -1.06578369140625, -0.765208740234375, 10.457852783203126
1520531470074143223, 0.28336033998443094, -0.03675162304309349, 0.011451592687340724, -1.10410400390625, -0.798739013671875, 10.488988037109376
1520531470079159223, 0.28282770776641514, -0.03249056529896671, 0.0029294771990871623, -1.08494384765625, -0.737666015625, 10.459050292968751
1520531470084174223, 0.28069717889435175, -0.02556634646476069, -0.006657902725198096, -1.074166259765625, -0.7364685058593751, 10.5237158203125
1520531470089190223, 0.27430559227816154, -0.018908443739562592, -0.01384843766841204, -1.004710693359375, -0.7807763671875, 10.457852783203126
1520531470094206223, 0.2759034889322091, -0.01864212763055467, -0.014913702104443736, -0.948427734375, -0.8214916992187501, 10.420729980468751
1520531470099221223, 0.272707695624114, -0.026631610900792385, -0.011185276578332801, -0.93166259765625, -0.801134033203125, 10.412347412109375
1520531470104238223, 0.2705771667520506, -0.03675162304309349, -0.004793689962142629, -0.9268725585937501, -0.77838134765625, 10.41114990234375
1520531470109253223, 0.2673813734439555, -0.043143209659283664, 0.006125270507182248, -0.8622070312500001, -0.75443115234375, 10.353669433593751
1520531470114267223, 0.25885925795570197, -0.05113269292952138, 0.015180018213451659, -0.83586181640625, -0.7532336425781251, 10.47821044921875
1520531470119284223, 0.25513083242959106, -0.05672533121868778, 0.02423476591972107, -0.844244384765625, -0.74964111328125, 10.499765625
1520531470124301223, 0.25193503912149595, -0.05779059565471947, 0.03222424918995878, -0.91250244140625, -0.7640112304687501, 10.500963134765625
1520531470129316223, 0.24288029141522655, -0.062317969507854176, 0.03568635860706179, -0.9412426757812501, -0.74006103515625, 10.558443603515625
1520531470134332223, 0.23382554370895714, -0.06551376281594927, 0.03408846195301425, -0.9460327148437501, -0.70174072265625, 10.526110839843751
1520531470139347223, 0.22849922152879865, -0.06444849837991756, 0.03302319751698256, -0.963995361328125, -0.63228515625, 10.480605468750001
1520531470144363223, 0.2210423704765768, -0.06524744670694134, 0.02716424311880823, -0.9496252441406251, -0.561632080078125, 10.526110839843751
1520531470149379223, 0.21305288720633908, -0.06045375674479871, 0.020506340393610135, -0.923280029296875, -0.501756591796875, 10.551258544921875
1520531470154394223, 0.20479708782709344, -0.05113269292952138, 0.014381069886427887, -0.940045166015625, -0.5460644531250001, 10.60275146484375
1520531470159410223, 0.19627497233883986, -0.04500742242233913, 0.013315805450396193, -0.948427734375, -0.52929931640625, 10.62670166015625
1520531470164425223, 0.18828548906860215, -0.0391484680241648, 0.009587379924285258, -0.8969348144531251, -0.46702880859375, 10.66502197265625
1520531470169442223, 0.1808286380163803, -0.03675162304309349, 0.005060006071150553, -0.820294189453125, -0.5077441406250001, 10.615924072265626
1520531470174458223, 0.17843179303530898, -0.038615835806148954, 0.008788431597261486, -0.8155041503906251, -0.499361572265625, 10.56922119140625
1520531470179473223, 0.17630126416324557, -0.046605319076386674, 0.014114753777419964, -0.8813671875000001, -0.408350830078125, 10.647059326171876
1520531470184489223, 0.1731054708551505, -0.05326322180158477, 0.015446334322459582, -0.8214916992187501, -0.286204833984375, 10.727292480468751
1520531470189506223, 0.1664475681299524, -0.06657902725198096, 0.016245282649483356, -0.825084228515625, -0.24069946289062502, 10.608739013671876
1520531470194521223, 0.16218651038582563, -0.08548747099154355, 0.021305288720633905, -0.9843530273437501, -0.257464599609375, 10.582393798828125
1520531470199536223, 0.16271914260384146, -0.09294432204376542, 0.02556634646476069, -1.026265869140625, -0.26345214843750003, 10.647059326171876
1520531470204553223, 0.16032229762277014, -0.09187905760773372, 0.02982740420888747, -0.9340576171875, -0.3113525390625, 10.596763916015625
1520531470209568223, 0.16245282649483353, -0.08069378102940092, 0.031691616971942935, -0.9580078125, -0.374820556640625, 10.678194580078125
1520531470214583223, 0.15925703318673845, -0.07217166554114736, 0.030360036426903318, -1.009500732421875, -0.43349853515625003, 10.61233154296875
1520531470219600223, 0.15712650431467506, -0.0636495500528938, 0.026098978682776535, -0.999920654296875, -0.465831298828125, 10.6195166015625
1520531470224616223, 0.15233281435253243, -0.05672533121868778, 0.018375811521546746, -0.93166259765625, -0.44068359375000005, 10.591973876953126
1520531470229632223, 0.14620754384535017, -0.04607268685837083, 0.011185276578332801, -0.8837622070312501, -0.48259643554687504, 10.568023681640625
1520531470234647223, 0.1430117505372551, -0.03941478413317273, 0.006391586616190172, -0.7723937988281251, -0.559237060546875, 10.61712158203125
1520531470239663223, 0.13235910617693813, -0.038615835806148954, 0.002663161090079238, -0.7125183105468751, -0.659827880859375, 10.589578857421875
1520531470244678223, 0.12596751956074798, -0.038615835806148954, -0.001331580545039619, -0.64905029296875, -0.67779052734375, 10.65544189453125
1520531470249694223, 0.11478224298241517, -0.03941478413317273, 0.0005326322180158477, -0.5269042968750001, -0.6562353515625, 10.668614501953126
1520531470254710223, 0.10333065029507445, -0.0402137324601965, 0.00346210941710301, -0.5412744140625, -0.611927490234375, 10.625504150390626
1520531470259727223, 0.0926780059347575, -0.04420847409531536, 0.008522115488253563, -0.51732421875, -0.5760021972656251, 10.65544189453125
1520531470264741223, 0.08335694211948017, -0.0458063707493629, 0.011451592687340724, -0.494571533203125, -0.536484375, 10.680589599609375
1520531470269757223, 0.0727042977591632, -0.04713795129440252, 0.019707392066586366, -0.540076904296875, -0.51732421875, 10.705737304687501
1520531470274773223, 0.056192699000671927, -0.04846953183944214, 0.02476739813773692, -0.645457763671875, -0.55324951171875, 10.733280029296875
1520531470279789223, 0.0458063707493629, -0.04181162911424404, 0.026098978682776535, -0.6574328613281251, -0.6274951171875001, 10.738070068359375
1520531470284804223, 0.03675162304309349, -0.032756881407974635, 0.02476739813773692, -0.700543212890625, -0.664617919921875, 10.73687255859375
1520531470289820223, 0.02689792700980031, -0.021837920938649755, 0.021038972611625982, -0.729283447265625, -0.707728271484375, 10.764415283203126
1520531470294835223, 0.018375811521546746, -0.008788431597261486, 0.014381069886427887, -0.743653564453125, -0.7232958984375001, 10.764415283203126
1520531470299851223, 0.014114753777419964, 0.0005326322180158477, 0.007190534943213944, -0.7328759765625, -0.6765930175781251, 10.67939208984375
1520531470304867223, 0.008788431597261486, 0.007723167161229791, 0.0, -0.669407958984375, -0.592767333984375, 10.61233154296875
1520531470309883223, 0.0055926382891664005, 0.011451592687340724, -0.00692421883420602, -0.5795947265625, -0.57719970703125, 10.578801269531251
1520531470314898223, 0.002663161090079238, 0.010652644360316953, -0.010652644360316953, -0.4981640625, -0.5867797851562501, 10.517728271484376
1520531470319914223, 0.0029294771990871623, 0.004793689962142629, -0.009054747706269411, -0.4981640625, -0.6358776855468751, 10.466235351562501
1520531470324930223, 0.005858954398174325, -0.003728425526110934, -0.009853696033293183, -0.55564453125, -0.6358776855468751, 10.431507568359375
1520531470329946223, 0.006125270507182248, -0.011984224905356573, -0.014114753777419964, -0.5748046875, -0.650247802734375, 10.44947021484375
1520531470334962223, 0.012516857123372421, -0.016245282649483356, -0.014381069886427887, -0.652642822265625, -0.680185546875, 10.3848046875
1520531470339977223, 0.02077265650261806, -0.015712650431467506, -0.019174759848570515, -0.741258544921875, -0.680185546875, 10.374027099609375
1520531470344993223, 0.02929477199087162, -0.012250541014364496, -0.023702133701705222, -0.74964111328125, -0.667012939453125, 10.38719970703125
1520531470350010223, 0.042077945223251964, -0.001864212763055467, -0.027430559227816155, -0.79275146484375, -0.7711962890625, 10.371632080078125
1520531470355025223, 0.0513990090385293, 0.010918960469324878, -0.03382214584400633, -0.8454418945312501, -0.8071215820312501, 10.376422119140626
1520531470360040223, 0.060720072853806636, 0.026631610900792385, -0.03728425526110934, -0.8861572265625001, -0.8178991699218751, 10.338101806640626
1520531470365055223, 0.07110640110511567, 0.03834951969714103, -0.03834951969714103, -0.8957373046875, -0.8478369140625001, 10.29139892578125
1520531470370073223, 0.08229167768344847, 0.0458063707493629, -0.04261057744126781, -0.9412426757812501, -0.85502197265625, 10.192005615234375
1520531470375089223, 0.09454221869781296, 0.06125270507182248, -0.048203215730434214, -0.963995361328125, -0.908909912109375, 10.168055419921876
1520531470380104223, 0.10519486305812992, 0.07350324608618698, -0.05379585401960062, -0.966390380859375, -0.9196875, 10.121352539062501
1520531470385119223, 0.11664645574547064, 0.08948221262666241, -0.05858954398174324, -0.93166259765625, -0.8238867187500001, 10.077044677734376
1520531470390136223, 0.12676646788777174, 0.10652644360316954, -0.06285060172587002, -0.9244775390625001, -0.702938232421875, 10.129735107421876
1520531470395150223, 0.13502226726701738, 0.12223909403463704, -0.06684534336098888, -0.9136999511718751, -0.57719970703125, 10.1788330078125
1520531470400166223, 0.13688648003007287, 0.13209279006793023, -0.06631271114297303, -0.81191162109375, -0.47900390625, 10.255473632812501
1520531470405182223, 0.14247911831923926, 0.13422331893999362, -0.06657902725198096, -0.686173095703125, -0.40954833984375, 10.352471923828125
1520531470410198223, 0.1408812216651917, 0.13262542228594607, -0.0636495500528938, -0.6753955078125, -0.32332763671875003, 10.484197998046875
1520531470415213223, 0.1408812216651917, 0.12650015177876384, -0.05432848623761646, -0.623902587890625, -0.207169189453125, 10.544073486328125
1520531470420230223, 0.13795174446610456, 0.11904330072654196, -0.042077945223251964, -0.5843847656250001, -0.10059082031250001, 10.472222900390625
1520531470425246223, 0.13448963504900155, 0.11238539800134385, -0.02769687533682408, -0.631087646484375, -0.104183349609375, 10.435100097656251
1520531470430261223, 0.13315805450396193, 0.10333065029507445, -0.013049489341388268, -0.718505859375, -0.17603393554687502, 10.566826171875
1520531470435278223, 0.13049489341388268, 0.09001484484467825, -0.003994741635118857, -0.70892578125, -0.281414794921875, 10.67939208984375
1520531470440293223, 0.12596751956074798, 0.07909588437535338, 0.003728425526110934, -0.5951623535156251, -0.24668701171875002, 10.614726562500001
1520531470445307223, 0.1195759329445578, 0.08468852266451977, 0.01997370817559429, -0.58198974609375, -0.16525634765625, 10.596763916015625
1520531470450325223, 0.11371697854638348, 0.09028116095368618, 0.026631610900792385, -0.9352551269531251, -0.28500732421875, 10.699749755859376
1520531470455340223, 0.10093380531400313, 0.080427464920393, 0.025033714246744842, -0.86939208984375, -0.37601806640625, 10.750045166015626
1520531470460355223, 0.08974852873567034, 0.07030745277809189, 0.02689792700980031, -0.6562353515625, -0.324525146484375, 10.771600341796876
1520531470465370223, 0.08175904546543261, 0.07004113666908397, 0.037017939152101415, -0.5987548828125, -0.247884521484375, 10.5907763671875
1520531470470387223, 0.07004113666908397, 0.06977482056007604, 0.04767058351241837, -0.7556286621093751, -0.2347119140625, 10.56922119140625
1520531470475404223, 0.05672533121868778, 0.06471481448892549, 0.05219795736555307, -0.83107177734375, -0.30296997070312504, 10.44228515625
1520531470480419223, 0.048203215730434214, 0.06444849837991756, 0.051665325147537224, -0.95082275390625, -0.42152343750000004, 10.4470751953125
1520531470485435223, 0.0402137324601965, 0.06391586616190172, 0.04420847409531536, -0.9711804199218751, -0.47301635742187503, 10.419532470703125
1520531470490450223, 0.02822950755483993, 0.06950850445106813, 0.030360036426903318, -0.9532177734375, -0.5029541015625, 10.38240966796875
1520531470495465223, 0.01944107595757844, 0.07882956826634546, 0.018109495412538822, -0.9723779296875, -0.48020141601562505, 10.369237060546876
1520531470500482223, 0.01038632825130903, 0.08815063208162278, 0.009321063815277334, -0.9627978515625001, -0.44307861328125003, 10.254276123046875
1520531470505498223, 0.006125270507182248, 0.10146643753201898, -0.001331580545039619, -0.999920654296875, -0.437091064453125, 10.242301025390626
1520531470510514223, -0.0021305288720633907, 0.11451592687340725, -0.013315805450396193, -1.050216064453125, -0.449066162109375, 10.256671142578126
1520531470515528223, -0.00825579937924564, 0.12463593901570835, -0.027430559227816155, -0.9951306152343751, -0.48618896484375, 10.3129541015625
1520531470520546223, -0.015712650431467506, 0.12756541621479553, -0.03994741635118858, -0.8861572265625001, -0.4550537109375, 10.448272705078125
1520531470525562223, -0.020506340393610135, 0.12144014570761327, -0.045540054640354974, -0.7723937988281251, -0.42032592773437505, 10.47821044921875
1520531470530576223, -0.02689792700980031, 0.10626012749416161, -0.0402137324601965, -0.647852783203125, -0.286204833984375, 10.59556640625
1520531470535592223, -0.034354778062022175, 0.0814927293564247, -0.03542004249805387, -0.57240966796875, -0.19878662109375, 10.556048583984376
1520531470540607223, -0.03994741635118858, 0.05273058958356892, -0.0234358175926973, -0.59635986328125, -0.21076171875000002, 10.577603759765626
1520531470545623223, -0.04261057744126781, 0.02556634646476069, -0.01038632825130903, -0.6083349609375001, -0.22513183593750002, 10.625504150390626
1520531470550639223, -0.044741106313331204, -0.0055926382891664005, -0.0007989483270237715, -0.645457763671875, -0.209564208984375, 10.63628173828125
1520531470555655223, -0.0468716351853946, -0.02982740420888747, 0.01038632825130903, -0.70892578125, -0.20357666015625, 10.611134033203125
1520531470560671223, -0.04846953183944214, -0.049002164057457984, 0.01651159875849128, -0.846639404296875, -0.23590942382812502, 10.524913330078126
1520531470565685223, -0.0458063707493629, -0.06418218227090965, 0.02290318537468145, -0.8753796386718751, -0.23590942382812502, 10.517728271484376
1520531470570703223, -0.04607268685837083, -0.07882956826634546, 0.02556634646476069, -0.871787109375, -0.24908203125, 10.4614453125
1520531470575718223, -0.045540054640354974, -0.09028116095368618, 0.030093720317895395, -0.868194580078125, -0.257464599609375, 10.462642822265625
1520531470580737223, -0.04500742242233913, -0.0982706442239239, 0.032756881407974635, -0.83586181640625, -0.267044677734375, 10.441087646484375
1520531470585750223, -0.04447479020432328, -0.10466223084011407, 0.03834951969714103, -0.85023193359375, -0.305364990234375, 10.488988037109376
1520531470590766223, -0.04527373853134705, -0.11345066243737556, 0.04420847409531536, -0.81191162109375, -0.346080322265625, 10.526110839843751
1520531470595781223, -0.0468716351853946, -0.1161138235274548, 0.04527373853134705, -0.8131091308593751, -0.38320312500000003, 10.52132080078125
1520531470600798223, -0.04607268685837083, -0.11664645574547064, 0.04420847409531536, -0.839454345703125, -0.40356079101562503, 10.488988037109376
1520531470605813223, -0.047404267403410444, -0.11531487520043102, 0.042077945223251964, -0.8574169921875, -0.42152343750000004, 10.500963134765625
1520531470610829223, -0.04793689962142629, -0.11025486912928047, 0.037017939152101415, -0.865799560546875, -0.47301635742187503, 10.466235351562501
1520531470615844223, -0.05193164125654515, -0.10812434025721708, 0.03062635253591124, -0.76880126953125, -0.52929931640625, 10.477012939453125
1520531470620861223, -0.05113269292952138, -0.10466223084011407, 0.02556634646476069, -0.7855664062500001, -0.53887939453125, 10.459050292968751
1520531470625876223, -0.05113269292952138, -0.0972053797878922, 0.0234358175926973, -0.8071215820312501, -0.549656982421875, 10.407557373046876
1520531470630892223, -0.05219795736555307, -0.08841694819063071, 0.018375811521546746, -0.8478369140625001, -0.549656982421875, 10.354866943359376
1520531470635907223, -0.053529537910592694, -0.0782969360483296, 0.01597896654047543, -0.841849365234375, -0.5352868652343751, 10.317744140625
1520531470640924223, -0.05246427347456099, -0.0681769239060285, 0.015712650431467506, -0.8646020507812501, -0.5795947265625, 10.227930908203126
1520531470645938223, -0.05326322180158477, -0.05379585401960062, 0.013315805450396193, -0.9136999511718751, -0.6167175292968751, 10.2746337890625
1520531470650955223, -0.05539375067364816, -0.03994741635118858, 0.010918960469324878, -0.968785400390625, -0.6059399414062501, 10.293793945312501
1520531470655970223, -0.05672533121868778, -0.02769687533682408, 0.004261057744126781, -0.983155517578125, -0.6658154296875001, 10.271041259765626
1520531470660986223, -0.0569916473276957, -0.015446334322459582, -0.00346210941710301, -0.9304650878906251, -0.7256909179687501, 10.290201416015625
1520531470666001223, -0.0569916473276957, -0.009587379924285258, -0.009054747706269411, -0.8813671875000001, -0.7616162109375001, 10.2458935546875
1520531470671018223, -0.056192699000671927, -0.0055926382891664005, -0.01171790879634865, -0.827479248046875, -0.7616162109375001, 10.279423828125001
1520531470676034223, -0.0580569117637274, -0.0010652644360316954, -0.012516857123372421, -0.833466796875, -0.748443603515625, 10.300979003906251
1520531470681050223, -0.05539375067364816, 0.0010652644360316954, -0.009587379924285258, -0.8382568359375, -0.74006103515625, 10.25786865234375
1520531470686065223, -0.05432848623761646, 0.0055926382891664005, -0.007456851052221868, -0.833466796875, -0.7532336425781251, 10.2842138671875
1520531470691081223, -0.05299690569257685, 0.01171790879634865, -0.003994741635118857, -0.8131091308593751, -0.767603759765625, 10.302176513671876
1520531470696096223, -0.05459480234662439, 0.015446334322459582, -0.0021305288720633907, -0.8214916992187501, -0.7723937988281251, 10.32492919921875
1520531470701112223, -0.04980111238448176, 0.020506340393610135, -0.001331580545039619, -0.79754150390625, -0.7448510742187501, 10.292596435546875
1520531470706129223, -0.049002164057457984, 0.02982740420888747, -0.001864212763055467, -0.7915539550781251, -0.729283447265625, 10.259066162109375
1520531470711144223, -0.04846953183944214, 0.032756881407974635, -0.0005326322180158477, -0.7963439941406251, -0.67779052734375, 10.25786865234375
1520531470716159223, -0.04846953183944214, 0.03328951362599048, 0.0, -0.781973876953125, -0.669407958984375, 10.22912841796875
1520531470721176223, -0.047404267403410444, 0.03595267471606972, 0.0029294771990871623, -0.743653564453125, -0.6514453125, 10.25786865234375
1520531470726191223, -0.045540054640354974, 0.03382214584400633, 0.0005326322180158477, -0.7580236816406251, -0.645457763671875, 10.27702880859375
1520531470731207223, -0.047404267403410444, 0.032756881407974635, -0.002663161090079238, -0.7664062500000001, -0.6251000976562501, 10.26265869140625
1520531470736223223, -0.046605319076386674, 0.033555829734998405, -0.0055926382891664005, -0.760418701171875, -0.57719970703125, 10.297386474609375
1520531470741238223, -0.04527373853134705, 0.039681100242180654, -0.009853696033293183, -0.7580236816406251, -0.5975573730468751, 10.336904296875
1520531470746253223, -0.046605319076386674, 0.047404267403410444, -0.016245282649483356, -0.7328759765625, -0.621507568359375, 10.321336669921875
1520531470751270223, -0.0468716351853946, 0.05273058958356892, -0.018109495412538822, -0.737666015625, -0.61552001953125, 10.383607177734376
1520531470756285223, -0.043143209659283664, 0.06018744063579079, -0.024501082028728992, -0.781973876953125, -0.585582275390625, 10.354866943359376
1520531470761302223, -0.04101268078722027, 0.06791060779702057, -0.03062635253591124, -0.765208740234375, -0.58198974609375, 10.285411376953126
1520531470766316223, -0.03888215191515688, 0.07243798165015529, -0.03728425526110934, -0.7747888183593751, -0.54366943359375, 10.251881103515625
1520531470771333223, -0.03408846195301425, 0.07723167161229791, -0.03808320358813311, -0.731678466796875, -0.5604345703125, 10.239906005859375
1520531470776349223, -0.030360036426903318, 0.08175904546543261, -0.03941478413317273, -0.748443603515625, -0.53408935546875, 10.278226318359376
1520531470781365223, -0.025300030355752765, 0.0782969360483296, -0.041278996896228194, -0.775986328125, -0.5508544921875, 10.24349853515625
1520531470786380223, -0.02210423704765768, 0.07456851052221868, -0.040480048569204424, -0.767603759765625, -0.5604345703125, 10.287806396484376
1520531470791397223, -0.016245282649483356, 0.07456851052221868, -0.04154531300523612, -0.8155041503906251, -0.5544470214843751, 10.290201416015625
1520531470796411223, -0.009587379924285258, 0.07510114274023452, -0.043942157986307434, -0.79275146484375, -0.561632080078125, 10.290201416015625
1520531470801428223, -0.007190534943213944, 0.07297061386817114, -0.04447479020432328, -0.7137158203125, -0.57240966796875, 10.336904296875
1520531470806443223, -0.005060006071150553, 0.06711165946999681, -0.04420847409531536, -0.686173095703125, -0.5568420410156251, 10.356064453125
1520531470811459223, -0.00346210941710301, 0.061519021180830406, -0.038615835806148954, -0.69216064453125, -0.57240966796875, 10.374027099609375
1520531470816473223, -0.003728425526110934, 0.05273058958356892, -0.02982740420888747, -0.7149133300781251, -0.604742431640625, 10.326126708984376
1520531470821491223, -0.003728425526110934, 0.04527373853134705, -0.019707392066586366, -0.6765930175781251, -0.6143225097656251, 10.3704345703125
1520531470826506223, -0.003728425526110934, 0.03648530693408557, -0.011451592687340724, -0.667012939453125, -0.5975573730468751, 10.3895947265625
1520531470831523223, -0.006391586616190172, 0.03062635253591124, -0.001864212763055467, -0.72090087890625, -0.5975573730468751, 10.364447021484375
1520531470836538223, -0.007190534943213944, 0.02849582366384785, 0.007989483270237714, -0.7472460937500001, -0.602347412109375, 10.394384765625
1520531470841554223, -0.008522115488253563, 0.02822950755483993, 0.014114753777419964, -0.7915539550781251, -0.622705078125, 10.356064453125
1520531470846568223, -0.009853696033293183, 0.02822950755483993, 0.014381069886427887, -0.814306640625, -0.659827880859375, 10.339299316406251
1520531470851586223, -0.005060006071150553, 0.029561088099879545, 0.015712650431467506, -0.814306640625, -0.613125, 10.34408935546875
1520531470856601223, -0.004527373853134706, 0.0290284558818637, 0.016245282649483356, -0.795146484375, -0.609532470703125, 10.326126708984376
1520531470861616223, -0.003994741635118857, 0.027430559227816155, 0.017576863194522972, -0.7939489746093751, -0.57719970703125, 10.340496826171876
1520531470866631223, -0.00026631610900792384, 0.0234358175926973, 0.017843179303530896, -0.829874267578125, -0.592767333984375, 10.318941650390625
1520531470871649223, 0.004261057744126781, 0.019707392066586366, 0.016777914867499202, -0.83107177734375, -0.623902587890625, 10.31055908203125
1520531470876665223, 0.010652644360316953, 0.016245282649483356, 0.014381069886427887, -0.8346643066406251, -0.664617919921875, 10.2650537109375
1520531470881680223, 0.017843179303530896, 0.01597896654047543, 0.009054747706269411, -0.8538244628906251, -0.74964111328125, 10.2171533203125
1520531470886696223, 0.022370553156665602, 0.015180018213451659, 0.006125270507182248, -0.901724853515625, -0.8047265625000001, 10.182425537109376
1520531470891711223, 0.03408846195301425, 0.016245282649483356, 0.0021305288720633907, -0.8646020507812501, -0.8238867187500001, 10.174042968750001
1520531470896726223, 0.04367584187729951, 0.015712650431467506, -0.003728425526110934, -0.8837622070312501, -0.7831713867187501, 10.187215576171875
1520531470901744223, 0.05406217012860854, 0.018109495412538822, -0.006657902725198096, -0.863404541015625, -0.7771838378906251, 10.196795654296876
1520531470906759223, 0.06791060779702057, 0.022370553156665602, -0.010918960469324878, -0.889749755859375, -0.7173083496093751, 10.15727783203125
1520531470911774223, 0.07962851659336923, 0.022370553156665602, -0.01651159875849128, -0.87418212890625, -0.686173095703125, 10.20517822265625
1520531470916789223, 0.09108010928070995, 0.023169501483689375, -0.022370553156665602, -0.858614501953125, -0.652642822265625, 10.272238769531251
1520531470921806223, 0.10333065029507445, 0.021837920938649755, -0.02556634646476069, -0.775986328125, -0.5867797851562501, 10.340496826171876
1520531470926822223, 0.1161138235274548, 0.01997370817559429, -0.02716424311880823, -0.8131091308593751, -0.501756591796875, 10.371632080078125
1520531470931837223, 0.12596751956074798, 0.016245282649483356, -0.025033714246744842, -0.779578857421875, -0.48618896484375, 10.413544921875001
1520531470936853223, 0.13582121559404114, 0.011185276578332801, -0.021571604829641832, -0.7664062500000001, -0.4646337890625, 10.4614453125
1520531470941868223, 0.1483380727174136, 0.004527373853134706, -0.01944107595757844, -0.722098388671875, -0.47660888671875, 10.498568115234375
1520531470946884223, 0.15872440096872262, -0.003728425526110934, -0.016777914867499202, -0.6981481933593751, -0.475411376953125, 10.480605468750001
1520531470951899223, 0.17283915474614256, -0.007989483270237714, -0.008522115488253563, -0.73048095703125, -0.47900390625, 10.487790527343751
1520531470956916223, 0.18162758634340406, -0.010120012142301106, -0.004527373853134706, -0.75922119140625, -0.50055908203125, 10.5045556640625
1520531470961932223, 0.19228023070372102, -0.009587379924285258, -0.001597896654047543, -0.7424560546875001, -0.5077441406250001, 10.541678466796876
1520531470966946223, 0.19920444953792704, -0.009587379924285258, 0.006391586616190172, -0.659827880859375, -0.48020141601562505, 10.558443603515625
1520531470971963223, 0.2045307717180855, -0.006125270507182248, 0.01651159875849128, -0.643062744140625, -0.501756591796875, 10.53090087890625
1520531470976979223, 0.20985709389824397, -0.005326322180158476, 0.024501082028728992, -0.65863037109375, -0.5376818847656251, 10.55724609375
1520531470981995223, 0.2101234100072519, -0.007190534943213944, 0.030892668644919165, -0.702938232421875, -0.5736071777343751, 10.623109130859376
1520531470987011223, 0.2111886744432836, -0.00825579937924564, 0.037017939152101415, -0.70892578125, -0.544866943359375, 10.570418701171876
1520531470992027223, 0.2122539388793153, -0.009321063815277334, 0.038615835806148954, -0.7065307617187501, -0.55324951171875, 10.58359130859375
1520531470997042223, 0.2119876227703074, -0.0055926382891664005, 0.03941478413317273, -0.6753955078125, -0.5508544921875, 10.6195166015625
1520531471002057223, 0.20799288113518852, -0.002663161090079238, 0.040480048569204424, -0.6765930175781251, -0.580792236328125, 10.63628173828125
1520531471007074223, 0.20373182339106174, -0.0021305288720633907, 0.035153726389045944, -0.7125183105468751, -0.607137451171875, 10.584788818359376
1520531471012090223, 0.2010686623009825, 0.0010652644360316954, 0.025832662573768612, -0.743653564453125, -0.6466552734375001, 10.546468505859375
1520531471017104223, 0.19787286899288742, 0.0055926382891664005, 0.018375811521546746, -0.731678466796875, -0.67060546875, 10.494975585937501
1520531471022121223, 0.19281286292173686, 0.01171790879634865, 0.008788431597261486, -0.7232958984375001, -0.6957531738281251, 10.4853955078125
1520531471027138223, 0.1898833857226497, 0.021837920938649755, -0.0005326322180158477, -0.7424560546875001, -0.662222900390625, 10.556048583984376
1520531471032153223, 0.18162758634340406, 0.028762139772855775, -0.009587379924285258, -0.7173083496093751, -0.645457763671875, 10.54527099609375
1520531471037168223, 0.1755023158362218, 0.02982740420888747, -0.01597896654047543, -0.7424560546875001, -0.650247802734375, 10.606343994140625
1520531471042184223, 0.16884441311102372, 0.032756881407974635, -0.020506340393610135, -0.705333251953125, -0.6179150390625, 10.674602050781251
1520531471047199223, 0.16218651038582563, 0.03382214584400633, -0.02077265650261806, -0.61552001953125, -0.580792236328125, 10.75603271484375
1520531471052215223, 0.1528654465705483, 0.029561088099879545, -0.016245282649483356, -0.613125, -0.571212158203125, 10.7919580078125
1520531471057231223, 0.14221280221023133, 0.022636869265673525, -0.014913702104443736, -0.61072998046875, -0.5376818847656251, 10.87578369140625
1520531471062247223, 0.132891738394954, 0.01864212763055467, -0.009587379924285258, -0.6059399414062501, -0.48978149414062505, 10.898536376953125
1520531471067262223, 0.12303804236166081, 0.015712650431467506, -0.003195793308095086, -0.6442602539062501, -0.48259643554687504, 10.92847412109375
1520531471072279223, 0.11025486912928047, 0.01651159875849128, 0.0007989483270237715, -0.647852783203125, -0.456251220703125, 10.874586181640625
1520531471077294223, 0.09587379924285258, 0.019174759848570515, 0.001864212763055467, -0.63468017578125, -0.4071533203125, 10.89494384765625
1520531471082310223, 0.08255799379245639, 0.021305288720633905, 0.005060006071150553, -0.623902587890625, -0.42870849609375, 10.869796142578126
1520531471087325223, 0.06631271114297303, 0.020240024284602212, 0.00692421883420602, -0.5783972167968751, -0.40356079101562503, 10.860216064453125
1520531471092342223, 0.05326322180158477, 0.018375811521546746, 0.006657902725198096, -0.566422119140625, -0.384400634765625, 10.88296875
1520531471097356223, 0.03888215191515688, 0.015180018213451659, 0.009853696033293183, -0.520916748046875, -0.348475341796875, 10.832673339843751
1520531471102372223, 0.023702133701705222, 0.009853696033293183, 0.012783173232380344, -0.501756591796875, -0.30895751953125, 10.8206982421875
1520531471107389223, 0.009054747706269411, 0.00692421883420602, 0.01944107595757844, -0.4646337890625, -0.3448828125, 10.759625244140626
1520531471112405223, -0.0023968449810713144, 0.005326322180158476, 0.02423476591972107, -0.501756591796875, -0.370030517578125, 10.73208251953125
1520531471117419223, -0.011451592687340724, 0.003728425526110934, 0.0234358175926973, -0.487386474609375, -0.427510986328125, 10.700947265625
1520531471122436223, -0.023702133701705222, 0.008522115488253563, 0.023968449810713145, -0.48618896484375, -0.49097900390625004, 10.660231933593751
1520531471127452223, -0.033555829734998405, 0.014913702104443736, 0.020240024284602212, -0.525706787109375, -0.50055908203125, 10.553653564453125
1520531471132468223, -0.040480048569204424, 0.023702133701705222, 0.01731054708551505, -0.59396484375, -0.5412744140625, 10.473420410156251
1520531471137483223, -0.04527373853134705, 0.032756881407974635, 0.009321063815277334, -0.547261962890625, -0.5604345703125, 10.41114990234375
1520531471142499223, -0.04953479627547384, 0.040480048569204424, 0.003728425526110934, -0.57240966796875, -0.53887939453125, 10.290201416015625
1520531471147514223, -0.05299690569257685, 0.049002164057457984, -0.0005326322180158477, -0.58198974609375, -0.5221142578125, 10.251881103515625
1520531471152530223, -0.05486111845563231, 0.05539375067364816, -0.004527373853134706, -0.536484375, -0.504151611328125, 10.218350830078126
1520531471157546223, -0.05645901510967986, 0.05912217619975909, -0.00692421883420602, -0.559237060546875, -0.49337402343750003, 10.181228027343751
1520531471162563223, -0.05672533121868778, 0.06391586616190172, -0.009321063815277334, -0.568817138671875, -0.46104125976562504, 10.180030517578125
1520531471167577223, -0.055926382891664, 0.06791060779702057, -0.009853696033293183, -0.5760021972656251, -0.45265869140625004, 10.129735107421876
1520531471172594223, -0.05379585401960062, 0.07110640110511567, -0.012516857123372421, -0.580792236328125, -0.458646240234375, 10.09740234375
1520531471177610223, -0.05379585401960062, 0.0759000910672583, -0.013315805450396193, -0.51971923828125, -0.4071533203125, 10.038724365234376
1520531471182624223, -0.050866376820513454, 0.0814927293564247, -0.014381069886427887, -0.504151611328125, -0.41074584960937505, 9.976453857421875
1520531471187641223, -0.04500742242233913, 0.0849548387735277, -0.01384843766841204, -0.53887939453125, -0.384400634765625, 9.962083740234375
1520531471192656223, -0.04101268078722027, 0.08788431597261487, -0.013049489341388268, -0.508941650390625, -0.41194335937500004, 9.93693603515625
1520531471197672223, -0.03595267471606972, 0.08761799986360694, -0.013049489341388268, -0.5053491210937501, -0.39517822265625, 9.90580078125
1520531471202688223, -0.03222424918995878, 0.08575378710055148, -0.013315805450396193, -0.475411376953125, -0.40954833984375, 9.867480468750001
1520531471207704223, -0.02556634646476069, 0.08575378710055148, -0.009321063815277334, -0.4646337890625, -0.405955810546875, 9.860295410156251
1520531471212721223, -0.018375811521546746, 0.08229167768344847, -0.00825579937924564, -0.46702880859375, -0.39398071289062503, 9.789642333984375
1520531471217736223, -0.01038632825130903, 0.07669903939428206, -0.010652644360316953, -0.47062133789062505, -0.40236328125000004, 9.754914550781251
1520531471222751223, -0.00346210941710301, 0.07483482663122659, -0.011451592687340724, -0.487386474609375, -0.43110351562500004, 9.717791748046876
1520531471227767223, 0.0, 0.07243798165015529, -0.015446334322459582, -0.488583984375, -0.47301635742187503, 9.751322021484375
1520531471232784223, 0.006657902725198096, 0.07004113666908397, -0.017044230976507126, -0.4550537109375, -0.48618896484375, 9.708211669921875
1520531471237799223, 0.012516857123372421, 0.06791060779702057, -0.015446334322459582, -0.449066162109375, -0.49097900390625004, 9.722581787109375
1520531471242814223, 0.017843179303530896, 0.0625842856168621, -0.01651159875849128, -0.41912841796875, -0.499361572265625, 9.75012451171875
1520531471247829223, 0.02423476591972107, 0.05779059565471947, -0.016777914867499202, -0.350870361328125, -0.51732421875, 9.7381494140625
1520531471252846223, 0.028762139772855775, 0.05246427347456099, -0.012783173232380344, -0.37601806640625, -0.566422119140625, 9.702224121093751
1520531471257862223, 0.03222424918995878, 0.048203215730434214, -0.009587379924285258, -0.45265869140625004, -0.619112548828125, 9.68306396484375
1520531471262877223, 0.0346210941710301, 0.046605319076386674, -0.00825579937924564, -0.45146118164062504, -0.67060546875, 9.67587890625
1520531471267892223, 0.037816887479125184, 0.04633900296737875, -0.00692421883420602, -0.4646337890625, -0.750838623046875, 9.71419921875
1520531471272909223, 0.04420847409531536, 0.04873584794845006, -0.008788431597261486, -0.48020141601562505, -0.7640112304687501, 9.686656494140626
1520531471277925223, 0.04633900296737875, 0.05246427347456099, -0.013049489341388268, -0.5053491210937501, -0.737666015625, 9.69264404296875
1520531471282941223, 0.05033374460249761, 0.05459480234662439, -0.016777914867499202, -0.540076904296875, -0.6981481933593751, 9.684261474609375
1520531471287956223, 0.05566006678265608, 0.05752427954571155, -0.017576863194522972, -0.5460644531250001, -0.686173095703125, 9.751322021484375
1520531471292972223, 0.05832322787273532, 0.06018744063579079, -0.02077265650261806, -0.5544470214843751, -0.669407958984375, 9.838740234375
1520531471297987223, 0.06045375674479871, 0.062317969507854176, -0.025033714246744842, -0.5185217285156251, -0.661025390625, 9.926158447265626
1520531471303003223, 0.06631271114297303, 0.062317969507854176, -0.02716424311880823, -0.47660888671875, -0.621507568359375, 9.96088623046875
1520531471308020223, 0.06897587223305228, 0.06045375674479871, -0.027430559227816155, -0.41314086914062503, -0.6143225097656251, 10.036329345703125
1520531471313034223, 0.07110640110511567, 0.05858954398174324, -0.02689792700980031, -0.39038818359375, -0.604742431640625, 10.12374755859375
1520531471318051223, 0.07243798165015529, 0.056192699000671927, -0.023169501483689375, -0.36404296875000003, -0.580792236328125, 10.17164794921875
1520531471323067223, 0.07723167161229791, 0.050067428493489684, -0.020240024284602212, -0.30177246093750004, -0.580792236328125, 10.183623046875
1520531471328083223, 0.0782969360483296, 0.04767058351241837, -0.019707392066586366, -0.277822265625, -0.5161267089843751, 10.202783203125
1520531471333098223, 0.07962851659336923, 0.043143209659283664, -0.015180018213451659, -0.288599853515625, -0.496966552734375, 10.180030517578125
1520531471338114223, 0.07962851659336923, 0.03488741028003802, -0.01171790879634865, -0.31374755859375003, -0.5736071777343751, 10.266251220703126
1520531471343129223, 0.08175904546543261, 0.02929477199087162, -0.010918960469324878, -0.300574951171875, -0.564027099609375, 10.32492919921875
1520531471348145223, 0.08096009713840885, 0.025033714246744842, -0.006391586616190172, -0.247884521484375, -0.48139892578125004, 10.316546630859376
1520531471353161223, 0.08388957433749601, 0.023169501483689375, 0.002663161090079238, -0.26105712890625, -0.41912841796875, 10.2650537109375
1520531471358177223, 0.08442220655551186, 0.02423476591972107, 0.007456851052221868, -0.295784912109375, -0.43828857421875, 10.2363134765625
1520531471363192223, 0.08388957433749601, 0.023968449810713145, 0.011984224905356573, -0.33171020507812504, -0.48020141601562505, 10.306966552734375
1520531471368209223, 0.08548747099154355, 0.0234358175926973, 0.017843179303530896, -0.29458740234375, -0.511336669921875, 10.3512744140625
1520531471373224223, 0.08468852266451977, 0.020240024284602212, 0.02556634646476069, -0.279019775390625, -0.49337402343750003, 10.362052001953126
1520531471378241223, 0.08468852266451977, 0.020240024284602212, 0.03568635860706179, -0.25387207031250003, -0.5161267089843751, 10.383607177734376
1520531471383256223, 0.08708536764559109, 0.02210423704765768, 0.04607268685837083, -0.24668701171875002, -0.484991455078125, 10.419532470703125
1520531471388272223, 0.08575378710055148, 0.025033714246744842, 0.05459480234662439, -0.21794677734375, -0.48020141601562505, 10.44228515625
1520531471393288223, 0.08735168375459902, 0.027963191445832, 0.06524744670694134, -0.239501953125, -0.45744873046875, 10.450667724609376
1520531471398302223, 0.09028116095368618, 0.032756881407974635, 0.07616640717626622, -0.20836669921875, -0.40475830078125, 10.510543212890626
1520531471403320223, 0.08948221262666241, 0.03648530693408557, 0.08761799986360694, -0.19639160156250002, -0.4071533203125, 10.494975585937501
1520531471408334223, 0.0916127414987258, 0.038615835806148954, 0.0972053797878922, -0.18920654296875, -0.396375732421875, 10.547666015625001
1520531471413349223, 0.09241168982574957, 0.0458063707493629, 0.10546117916713783, -0.15328125, -0.427510986328125, 10.585986328125001
1520531471418366223, 0.09241168982574957, 0.04873584794845006, 0.111852765783328, -0.20597167968750002, -0.437091064453125, 10.645861816406251
1520531471423382223, 0.09001484484467825, 0.05113269292952138, 0.1206411973805895, -0.192799072265625, -0.494571533203125, 10.663824462890625
1520531471428398223, 0.08948221262666241, 0.0513990090385293, 0.12383699068868459, -0.195194091796875, -0.48379394531250003, 10.6769970703125
1520531471433413223, 0.08948221262666241, 0.05246427347456099, 0.1307612095228906, -0.238304443359375, -0.51013916015625, 10.718909912109375
1520531471438429223, 0.09001484484467825, 0.050067428493489684, 0.13555489948503324, -0.276624755859375, -0.51971923828125, 10.754835205078125
1520531471443445223, 0.09001484484467825, 0.048203215730434214, 0.13768542835709663, -0.29338989257812503, -0.53887939453125, 10.77040283203125
1520531471448459223, 0.08815063208162278, 0.05060006071150553, 0.14034858944717588, -0.298179931640625, -0.5795947265625, 10.751242675781251
1520531471453476223, 0.08575378710055148, 0.05486111845563231, 0.1419464861012234, -0.335302734375, -0.5484594726562501, 10.716514892578125
1520531471458493223, 0.08575378710055148, 0.06098638896281456, 0.13875069279312832, -0.32332763671875003, -0.5316943359375, 10.663824462890625
1520531471463507223, 0.08655273542757524, 0.06444849837991756, 0.1352885833760253, -0.338895263671875, -0.5652246093750001, 10.659034423828125
1520531471468523223, 0.08681905153658317, 0.07190534943213944, 0.1352885833760253, -0.3448828125, -0.5987548828125, 10.711724853515626
1520531471473539223, 0.0860201032095594, 0.07776430383031376, 0.13049489341388268, -0.32332763671875003, -0.571212158203125, 10.7153173828125
1520531471478555223, 0.08735168375459902, 0.08069378102940092, 0.1262338356697559, -0.39278320312500004, -0.58198974609375, 10.6482568359375
1520531471483571223, 0.08681905153658317, 0.08522115488253562, 0.11824435239951818, -0.405955810546875, -0.59396484375, 10.64107177734375
1520531471488587223, 0.08708536764559109, 0.08815063208162278, 0.11238539800134385, -0.39996826171875, -0.60114990234375, 10.59556640625
1520531471493602223, 0.08761799986360694, 0.09214537371674165, 0.1073253919301933, -0.3879931640625, -0.5760021972656251, 10.55006103515625
1520531471498618223, 0.08894958040864656, 0.09347695426178126, 0.10226538585904275, -0.370030517578125, -0.5700146484375, 10.520123291015626
1520531471503634223, 0.08868326429963864, 0.09587379924285258, 0.09853696033293181, -0.3688330078125, -0.5951623535156251, 10.560838623046875
1520531471508650223, 0.08948221262666241, 0.09587379924285258, 0.09534116702483673, -0.43230102539062504, -0.6083349609375001, 10.6290966796875
1520531471513664223, 0.08655273542757524, 0.09693906367888427, 0.09134642538971788, -0.40954833984375, -0.6083349609375001, 10.651849365234376
1520531471518682223, 0.09001484484467825, 0.0982706442239239, 0.09001484484467825, -0.425115966796875, -0.623902587890625, 10.5811962890625
1520531471523697223, 0.0905474770626941, 0.10146643753201898, 0.08708536764559109, -0.48139892578125004, -0.640667724609375, 10.570418701171876
1520531471528712223, 0.09108010928070995, 0.10359696640408238, 0.0849548387735277, -0.5245092773437501, -0.611927490234375, 10.57401123046875
1520531471533729223, 0.09427590258880504, 0.10679275971217746, 0.07989483270237716, -0.528101806640625, -0.5795947265625, 10.5380859375
1520531471538745223, 0.09587379924285258, 0.11158644967432009, 0.07403587830420283, -0.5376818847656251, -0.5412744140625, 10.60275146484375
1520531471543760223, 0.0972053797878922, 0.11158644967432009, 0.06791060779702057, -0.55803955078125, -0.49097900390625004, 10.6290966796875
1520531471548775223, 0.09747169589690012, 0.11238539800134385, 0.06098638896281456, -0.520916748046875, -0.4550537109375, 10.605146484375
1520531471553792223, 0.09880327644193974, 0.1150485590914231, 0.05539375067364816, -0.536484375, -0.425115966796875, 10.620714111328125
1520531471558808223, 0.09933590865995559, 0.11691277185447857, 0.04873584794845006, -0.571212158203125, -0.40116577148437504, 10.6099365234375
1520531471563822223, 0.09933590865995559, 0.12010856516257365, 0.04101268078722027, -0.571212158203125, -0.374820556640625, 10.6482568359375
1520531471568839223, 0.09960222476896352, 0.1272991001057876, 0.03408846195301425, -0.590372314453125, -0.389190673828125, 10.6578369140625
1520531471573856223, 0.09960222476896352, 0.1283643645418193, 0.027963191445832, -0.5221142578125, -0.38080810546875005, 10.671009521484375
1520531471578870223, 0.09614011535186051, 0.12650015177876384, 0.021837920938649755, -0.5077441406250001, -0.38200561523437504, 10.70334228515625
1520531471583886223, 0.09321063815277335, 0.12570120345174005, 0.017576863194522972, -0.542471923828125, -0.396375732421875, 10.699749755859376
1520531471588902223, 0.09001484484467825, 0.12783173232380343, 0.014381069886427887, -0.5029541015625, -0.46104125976562504, 10.788365478515626
1520531471593918223, 0.08388957433749601, 0.12570120345174005, 0.013049489341388268, -0.494571533203125, -0.458646240234375, 10.785970458984375
1520531471598932223, 0.07856325215733753, 0.12144014570761327, 0.01171790879634865, -0.523311767578125, -0.45146118164062504, 10.78956298828125
1520531471603950223, 0.07243798165015529, 0.11877698461753403, 0.014381069886427887, -0.4981640625, -0.44786865234375, 10.81351318359375
1520531471608965223, 0.0692421883420602, 0.11371697854638348, 0.018109495412538822, -0.506546630859375, -0.456251220703125, 10.773995361328126
1520531471613980223, 0.06285060172587002, 0.11078750134729631, 0.02077265650261806, -0.5077441406250001, -0.4646337890625, 10.709329833984375
1520531471618997223, 0.05539375067364816, 0.1094559208022567, 0.022636869265673525, -0.496966552734375, -0.468226318359375, 10.709329833984375
1520531471624012223, 0.0513990090385293, 0.11105381745630424, 0.024501082028728992, -0.47062133789062505, -0.47660888671875, 10.68418212890625
1520531471629028223, 0.046605319076386674, 0.11291803021935971, 0.030093720317895395, -0.43349853515625003, -0.47062133789062505, 10.668614501953126
1520531471634044223, 0.04154531300523612, 0.11424961076439932, 0.03568635860706179, -0.40236328125000004, -0.48379394531250003, 10.694959716796875
1520531471639059223, 0.033555829734998405, 0.11851066850852611, 0.043942157986307434, -0.377215576171875, -0.49097900390625004, 10.706934814453126
1520531471644075223, 0.029561088099879545, 0.12117382959860534, 0.05219795736555307, -0.41074584960937505, -0.48978149414062505, 10.675799560546876
1520531471649091223, 0.02476739813773692, 0.12330435847066874, 0.06045375674479871, -0.41074584960937505, -0.5077441406250001, 10.615924072265626
1520531471654107223, 0.020240024284602212, 0.12436962290670044, 0.0681769239060285, -0.384400634765625, -0.5316943359375, 10.570418701171876
1520531471659124223, 0.019707392066586366, 0.13049489341388268, 0.07723167161229791, -0.386795654296875, -0.5736071777343751, 10.560838623046875
1520531471664137223, 0.01731054708551505, 0.13475595115800945, 0.08229167768344847, -0.415535888671875, -0.60114990234375, 10.560838623046875
1520531471669154223, 0.015446334322459582, 0.13981595722916002, 0.08122641324741676, -0.47062133789062505, -0.587977294921875, 10.568023681640625
1520531471674170223, 0.016777914867499202, 0.14780544049939773, 0.08229167768344847, -0.43828857421875, -0.568817138671875, 10.579998779296876
1520531471679185223, 0.018908443739562592, 0.15446334322459582, 0.08282430990146432, -0.39038818359375, -0.53408935546875, 10.615924072265626
1520531471684201223, 0.020240024284602212, 0.15925703318673845, 0.08175904546543261, -0.3496728515625, -0.46223876953125004, 10.702144775390625
1520531471689216223, 0.023702133701705222, 0.16112124594979393, 0.08388957433749601, -0.300574951171875, -0.3879931640625, 10.757230224609376
1520531471694234223, 0.023702133701705222, 0.15792545264169883, 0.09028116095368618, -0.29219238281250004, -0.354462890625, 10.82788330078125
1520531471699248223, 0.026631610900792385, 0.15259913046154036, 0.09667274756987636, -0.288599853515625, -0.355660400390625, 10.911708984375
1520531471704265223, 0.02982740420888747, 0.14674017606336603, 0.1073253919301933, -0.3305126953125, -0.35206787109375004, 10.922486572265626
1520531471709280223, 0.03222424918995878, 0.13901700890213625, 0.11584750741844686, -0.39398071289062503, -0.37601806640625, 10.952424316406251
1520531471714295223, 0.03408846195301425, 0.13502226726701738, 0.12463593901570835, -0.365240478515625, -0.4358935546875, 10.967991943359376
1520531471719312223, 0.03249056529896671, 0.13049489341388268, 0.13448963504900155, -0.37601806640625, -0.47062133789062505, 11.03625
1520531471724328223, 0.03328951362599048, 0.12703278399677967, 0.1440770149732868, -0.47301635742187503, -0.542471923828125, 11.063792724609376
1520531471729343223, 0.030093720317895395, 0.12144014570761327, 0.15499597544261168, -0.508941650390625, -0.5783972167968751, 11.064990234375001
1520531471734359223, 0.027963191445832, 0.1161138235274548, 0.16511598758491278, -0.5185217285156251, -0.585582275390625, 11.145223388671875
1520531471739375223, 0.02849582366384785, 0.11158644967432009, 0.17496968361820597, -0.508941650390625, -0.621507568359375, 11.21587646484375
1520531471744390223, 0.027963191445832, 0.10466223084011407, 0.1898833857226497, -0.499361572265625, -0.5736071777343751, 11.230246582031251
1520531471749406223, 0.02716424311880823, 0.09640643146086843, 0.20479708782709344, -0.3975732421875, -0.544866943359375, 11.257789306640625
1520531471754422223, 0.030093720317895395, 0.08229167768344847, 0.22237395102161642, -0.44068359375000005, -0.536484375, 11.327244873046876
