# timestamp, wx, wy, wz, ax, ay, az
1.691119075075499008e+18,-2.436053593179049806e-03,6.090133982947624515e-03,3.532277710109622132e-02,1.532858880000000090e-01,-1.532858880000000090e-01,9.657010944000001373e+00
1.691119075085499136e+18,0.000000000000000000e+00,1.096224116930572499e-02,2.801461632155907364e-02,3.065717760000000180e-01,-1.532858880000000090e-01,9.503725056000000393e+00
1.691119075095499008e+18,9.744214372716199224e-03,6.090133982947624515e-03,3.045066991473812518e-02,1.532858880000000090e-01,-1.532858880000000090e-01,9.503725056000000393e+00
1.691119075105499136e+18,1.218026796589524903e-03,1.096224116930572499e-02,3.166869671132764574e-02,4.598576639999999993e-01,-1.532858880000000090e-01,9.657010944000001373e+00
1.691119075115499008e+18,4.872107186358099612e-03,7.308160779537149418e-03,3.166869671132764574e-02,0.000000000000000000e+00,-1.532858880000000090e-01,9.503725056000000393e+00
1.691119075125499136e+18,-2.436053593179049806e-03,1.339829476248477480e-02,2.679658952496954960e-02,1.532858880000000090e-01,0.000000000000000000e+00,9.657010944000001373e+00
1.691119075135499008e+18,3.654080389768574709e-03,4.872107186358099612e-03,2.192448233861144999e-02,1.532858880000000090e-01,-1.532858880000000090e-01,9.657010944000001373e+00
1.691119075145498880e+18,3.654080389768574709e-03,4.872107186358099612e-03,2.923264311814859767e-02,0.000000000000000000e+00,0.000000000000000000e+00,9.657010944000001373e+00
1.691119075155499008e+18,-4.872107186358099612e-03,2.436053593179049806e-03,2.923264311814859767e-02,1.532858880000000090e-01,0.000000000000000000e+00,9.657010944000001373e+00
1.691119075165498880e+18,0.000000000000000000e+00,1.827040194884287441e-02,2.314250913520097402e-02,0.000000000000000000e+00,-1.532858880000000090e-01,9.503725056000000393e+00
1.691119075175499008e+18,-3.654080389768574709e-03,1.339829476248477480e-02,3.166869671132764574e-02,3.065717760000000180e-01,-1.532858880000000090e-01,9.657010944000001373e+00
1.691119075185498880e+18,0.000000000000000000e+00,1.218026796589524903e-02,3.288672350791717325e-02,4.598576639999999993e-01,-1.532858880000000090e-01,9.657010944000001373e+00
1.691119075195499008e+18,1.218026796589524903e-03,2.436053593179049806e-03,2.923264311814859767e-02,1.532858880000000090e-01,-1.532858880000000090e-01,9.503725056000000393e+00
1.691119075205499136e+18,2.436053593179049806e-03,6.090133982947624515e-03,3.532277710109622132e-02,1.532858880000000090e-01,-3.065717760000000180e-01,9.810296832000000578e+00
1.691119075215499264e+18,0.000000000000000000e+00,4.872107186358099612e-03,3.288672350791717325e-02,3.065717760000000180e-01,-1.532858880000000090e-01,9.657010944000001373e+00
1.691119075225499136e+18,3.654080389768574709e-03,6.090133982947624515e-03,3.166869671132764574e-02,-3.065717760000000180e-01,-1.532858880000000090e-01,9.657010944000001373e+00
1.691119075235499264e+18,4.872107186358099612e-03,4.872107186358099612e-03,2.557856272838002556e-02,1.532858880000000090e-01,-1.532858880000000090e-01,9.657010944000001373e+00
1.691119075245499136e+18,8.526187576126675188e-03,9.744214372716199224e-03,2.801461632155907364e-02,1.532858880000000090e-01,-1.532858880000000090e-01,9.503725056000000393e+00
1.691119075255499008e+18,4.872107186358099612e-03,4.872107186358099612e-03,3.045066991473812518e-02,1.532858880000000090e-01,-1.532858880000000090e-01,9.657010944000001373e+00
1.691119075265499136e+18,3.654080389768574709e-03,1.096224116930572499e-02,3.045066991473812518e-02,0.000000000000000000e+00,-1.532858880000000090e-01,9.503725056000000393e+00
1.691119075275499008e+18,-6.090133982947624515e-03,7.308160779537149418e-03,3.532277710109622132e-02,0.000000000000000000e+00,-3.065717760000000180e-01,9.657010944000001373e+00
1.691119075285499136e+18,6.090133982947624515e-03,-2.436053593179049806e-03,2.436053593179049806e-02,1.532858880000000090e-01,-1.532858880000000090e-01,9.503725056000000393e+00
1.691119075295499008e+18,1.218026796589524903e-02,1.461632155907429884e-02,3.410475030450670075e-02,3.065717760000000180e-01,-3.065717760000000180e-01,9.657010944000001373e+00
1.691119075305499136e+18,8.526187576126675188e-03,2.436053593179049806e-03,3.045066991473812518e-02,-1.532858880000000090e-01,-1.532858880000000090e-01,9.657010944000001373e+00
1.691119075315499008e+18,4.872107186358099612e-03,9.744214372716199224e-03,3.045066991473812518e-02,1.532858880000000090e-01,-1.532858880000000090e-01,9.503725056000000393e+00
1.691119075325499136e+18,-8.526187576126675188e-03,4.872107186358099612e-03,3.045066991473812518e-02,0.000000000000000000e+00,-1.532858880000000090e-01,9.503725056000000393e+00
1.691119075335499008e+18,1.218026796589524903e-03,9.744214372716199224e-03,3.166869671132764574e-02,1.532858880000000090e-01,0.000000000000000000e+00,9.657010944000001373e+00
1.691119075345499136e+18,-7.308160779537149418e-03,7.308160779537149418e-03,2.192448233861144999e-02,0.000000000000000000e+00,-1.532858880000000090e-01,9.657010944000001373e+00
1.691119075355499008e+18,-2.436053593179049806e-03,9.744214372716199224e-03,3.532277710109622132e-02,4.598576639999999993e-01,-3.065717760000000180e-01,9.503725056000000393e+00
1.691119075365499136e+18,-1.096224116930572499e-02,2.436053593179049806e-03,2.436053593179049806e-02,3.065717760000000180e-01,-1.532858880000000090e-01,9.503725056000000393e+00
1.691119075375499008e+18,0.000000000000000000e+00,1.218026796589524903e-02,3.045066991473812518e-02,1.532858880000000090e-01,-1.532858880000000090e-01,9.657010944000001373e+00
1.691119075385498880e+18,-1.218026796589524903e-02,7.308160779537149418e-03,3.532277710109622132e-02,0.000000000000000000e+00,-1.532858880000000090e-01,9.503725056000000393e+00
1.691119075395499008e+18,-2.436053593179049806e-03,1.339829476248477480e-02,3.288672350791717325e-02,1.532858880000000090e-01,-1.532858880000000090e-01,9.350439168000001189e+00
1.691119075405498880e+18,9.744214372716199224e-03,1.339829476248477480e-02,3.166869671132764574e-02,1.532858880000000090e-01,-1.532858880000000090e-01,9.657010944000001373e+00
1.691119075415499008e+18,-2.436053593179049806e-03,4.872107186358099612e-03,3.045066991473812518e-02,3.065717760000000180e-01,-1.532858880000000090e-01,9.657010944000001373e+00
1.691119075425498880e+18,9.744214372716199224e-03,6.090133982947624515e-03,2.436053593179049806e-02,1.532858880000000090e-01,-1.532858880000000090e-01,9.503725056000000393e+00
1.691119075435499008e+18,6.090133982947624515e-03,4.872107186358099612e-03,3.288672350791717325e-02,0.000000000000000000e+00,0.000000000000000000e+00,9.503725056000000393e+00
1.691119075445498880e+18,1.218026796589524903e-03,4.872107186358099612e-03,3.654080389768574882e-02,0.000000000000000000e+00,-1.532858880000000090e-01,9.503725056000000393e+00
1.691119075455499264e+18,-1.218026796589524903e-03,1.218026796589524903e-02,3.288672350791717325e-02,3.065717760000000180e-01,-1.532858880000000090e-01,9.503725056000000393e+00
1.691119075465499136e+18,7.308160779537149418e-03,6.090133982947624515e-03,3.288672350791717325e-02,1.532858880000000090e-01,-1.532858880000000090e-01,9.503725056000000393e+00
1.691119075475499264e+18,7.308160779537149418e-03,1.096224116930572499e-02,2.801461632155907364e-02,1.532858880000000090e-01,-1.532858880000000090e-01,9.657010944000001373e+00
1.691119075485499136e+18,1.096224116930572499e-02,2.436053593179049806e-03,3.532277710109622132e-02,1.532858880000000090e-01,-1.532858880000000090e-01,9.657010944000001373e+00
1.691119075495499008e+18,-3.654080389768574709e-03,1.339829476248477480e-02,2.436053593179049806e-02,3.065717760000000180e-01,-1.532858880000000090e-01,9.810296832000000578e+00
1.691119075505499136e+18,1.218026796589524903e-03,4.872107186358099612e-03,2.679658952496954960e-02,1.532858880000000090e-01,-3.065717760000000180e-01,9.657010944000001373e+00
1.691119075515499008e+18,7.308160779537149418e-03,9.744214372716199224e-03,2.557856272838002556e-02,1.532858880000000090e-01,-3.065717760000000180e-01,9.503725056000000393e+00
1.691119075525499136e+18,-1.218026796589524903e-03,7.308160779537149418e-03,2.923264311814859767e-02,0.000000000000000000e+00,-3.065717760000000180e-01,9.657010944000001373e+00
1.691119075535499008e+18,1.218026796589524903e-03,8.526187576126675188e-03,3.166869671132764574e-02,0.000000000000000000e+00,-1.532858880000000090e-01,9.503725056000000393e+00
1.691119075545499136e+18,-8.526187576126675188e-03,7.308160779537149418e-03,3.288672350791717325e-02,3.065717760000000180e-01,-1.532858880000000090e-01,9.657010944000001373e+00
1.691119075555499008e+18,-2.436053593179049806e-03,8.526187576126675188e-03,3.288672350791717325e-02,1.532858880000000090e-01,-1.532858880000000090e-01,9.503725056000000393e+00
1.691119075565499136e+18,1.218026796589524903e-03,1.948842874543239845e-02,2.436053593179049806e-02,3.065717760000000180e-01,-3.065717760000000180e-01,9.657010944000001373e+00
1.691119075575499008e+18,4.872107186358099612e-03,1.218026796589524903e-02,3.532277710109622132e-02,4.598576639999999993e-01,-1.532858880000000090e-01,9.503725056000000393e+00
1.691119075585499136e+18,1.218026796589524903e-03,1.339829476248477480e-02,3.045066991473812518e-02,1.532858880000000090e-01,-1.532858880000000090e-01,9.657010944000001373e+00
1.691119075595499008e+18,0.000000000000000000e+00,7.308160779537149418e-03,1.461632155907429884e-02,3.065717760000000180e-01,-1.532858880000000090e-01,9.503725056000000393e+00
1.691119075605499136e+18,7.308160779537149418e-03,1.096224116930572499e-02,3.532277710109622132e-02,1.532858880000000090e-01,-1.532858880000000090e-01,9.657010944000001373e+00
1.691119075615499008e+18,3.654080389768574709e-03,8.526187576126675188e-03,3.775883069427527633e-02,7.664294400000000174e-01,-3.065717760000000180e-01,9.657010944000001373e+00
1.691119075625499136e+18,-2.436053593179049806e-03,8.526187576126675188e-03,4.019488428745432440e-02,1.532858880000000090e-01,-1.532858880000000090e-01,9.503725056000000393e+00
1.691119075635499008e+18,0.000000000000000000e+00,9.744214372716199224e-03,3.166869671132764574e-02,0.000000000000000000e+00,-1.532858880000000090e-01,9.657010944000001373e+00
1.691119075645498880e+18,6.090133982947624515e-03,8.526187576126675188e-03,2.436053593179049806e-02,-1.532858880000000090e-01,0.000000000000000000e+00,9.503725056000000393e+00
1.691119075655499008e+18,-2.436053593179049806e-03,1.096224116930572499e-02,2.801461632155907364e-02,3.065717760000000180e-01,0.000000000000000000e+00,9.503725056000000393e+00
1.691119075665498880e+18,1.096224116930572499e-02,3.654080389768574709e-03,3.654080389768574882e-02,1.532858880000000090e-01,-1.532858880000000090e-01,9.503725056000000393e+00
1.691119075675499008e+18,-9.744214372716199224e-03,6.090133982947624515e-03,2.436053593179049806e-02,0.000000000000000000e+00,-1.532858880000000090e-01,9.657010944000001373e+00
1.691119075685498880e+18,7.308160779537149418e-03,7.308160779537149418e-03,3.775883069427527633e-02,4.598576639999999993e-01,-1.532858880000000090e-01,9.503725056000000393e+00
1.691119075695499008e+18,1.096224116930572499e-02,1.339829476248477480e-02,2.070645554202192595e-02,-3.065717760000000180e-01,-1.532858880000000090e-01,9.503725056000000393e+00
1.691119075705499136e+18,2.436053593179049806e-03,1.461632155907429884e-02,3.410475030450670075e-02,1.532858880000000090e-01,-1.532858880000000090e-01,9.657010944000001373e+00
1.691119075715499264e+18,1.218026796589524903e-03,1.218026796589524903e-02,2.314250913520097402e-02,3.065717760000000180e-01,-1.532858880000000090e-01,9.503725056000000393e+00
1.691119075725499136e+18,4.872107186358099612e-03,1.705237515225335038e-02,2.801461632155907364e-02,-3.065717760000000180e-01,-1.532858880000000090e-01,9.503725056000000393e+00
1.691119075735499264e+18,1.339829476248477480e-02,9.744214372716199224e-03,4.141291108404385191e-02,1.532858880000000090e-01,-1.532858880000000090e-01,9.503725056000000393e+00
1.691119075745499136e+18,-1.218026796589524903e-03,1.339829476248477480e-02,1.827040194884287441e-02,1.532858880000000090e-01,-3.065717760000000180e-01,9.657010944000001373e+00
1.691119075755499008e+18,6.090133982947624515e-03,4.872107186358099612e-03,3.166869671132764574e-02,0.000000000000000000e+00,-1.532858880000000090e-01,9.503725056000000393e+00
1.691119075765499136e+18,-1.218026796589524903e-03,7.308160779537149418e-03,3.166869671132764574e-02,0.000000000000000000e+00,-3.065717760000000180e-01,9.503725056000000393e+00
1.691119075775499008e+18,-7.308160779537149418e-03,6.090133982947624515e-03,3.410475030450670075e-02,1.532858880000000090e-01,-1.532858880000000090e-01,9.657010944000001373e+00
1.691119075785499136e+18,-6.090133982947624515e-03,1.096224116930572499e-02,2.557856272838002556e-02,1.532858880000000090e-01,-1.532858880000000090e-01,9.503725056000000393e+00
1.691119075795499008e+18,6.090133982947624515e-03,1.218026796589524903e-02,3.654080389768574882e-02,1.532858880000000090e-01,0.000000000000000000e+00,9.657010944000001373e+00
1.691119075805499136e+18,4.872107186358099612e-03,1.096224116930572499e-02,2.923264311814859767e-02,3.065717760000000180e-01,-3.065717760000000180e-01,9.503725056000000393e+00
1.691119075815499008e+18,-1.218026796589524903e-03,1.218026796589524903e-02,2.436053593179049806e-02,0.000000000000000000e+00,0.000000000000000000e+00,9.503725056000000393e+00
1.691119075825499136e+18,-1.218026796589524903e-03,8.526187576126675188e-03,2.801461632155907364e-02,3.065717760000000180e-01,-1.532858880000000090e-01,9.657010944000001373e+00
1.691119075835499008e+18,-3.654080389768574709e-03,8.526187576126675188e-03,2.679658952496954960e-02,3.065717760000000180e-01,-1.532858880000000090e-01,9.657010944000001373e+00
1.691119075845499136e+18,3.654080389768574709e-03,7.308160779537149418e-03,3.532277710109622132e-02,0.000000000000000000e+00,-1.532858880000000090e-01,9.503725056000000393e+00
1.691119075855499008e+18,-4.872107186358099612e-03,1.339829476248477480e-02,2.923264311814859767e-02,3.065717760000000180e-01,-1.532858880000000090e-01,9.657010944000001373e+00
1.691119075865499136e+18,1.218026796589524903e-02,7.308160779537149418e-03,2.557856272838002556e-02,0.000000000000000000e+00,-1.532858880000000090e-01,9.503725056000000393e+00
1.691119075875499008e+18,-4.872107186358099612e-03,9.744214372716199224e-03,2.679658952496954960e-02,1.532858880000000090e-01,0.000000000000000000e+00,9.503725056000000393e+00
1.691119075885498880e+18,7.308160779537149418e-03,7.308160779537149418e-03,3.288672350791717325e-02,1.532858880000000090e-01,-1.532858880000000090e-01,9.657010944000001373e+00
1.691119075895499008e+18,7.308160779537149418e-03,9.744214372716199224e-03,2.923264311814859767e-02,0.000000000000000000e+00,-1.532858880000000090e-01,9.503725056000000393e+00
1.691119075905498880e+18,9.744214372716199224e-03,1.218026796589524903e-03,3.288672350791717325e-02,1.532858880000000090e-01,-1.532858880000000090e-01,9.503725056000000393e+00
1.691119075915499008e+18,-4.872107186358099612e-03,8.526187576126675188e-03,2.801461632155907364e-02,1.532858880000000090e-01,-1.532858880000000090e-01,9.657010944000001373e+00
1.691119075925498880e+18,-3.654080389768574709e-03,9.744214372716199224e-03,2.801461632155907364e-02,3.065717760000000180e-01,-1.532858880000000090e-01,9.810296832000000578e+00
1.691119075935499008e+18,3.654080389768574709e-03,8.526187576126675188e-03,4.019488428745432440e-02,1.532858880000000090e-01,-1.532858880000000090e-01,9.503725056000000393e+00
1.691119075945498880e+18,2.436053593179049806e-03,6.090133982947624515e-03,2.923264311814859767e-02,0.000000000000000000e+00,-1.532858880000000090e-01,9.657010944000001373e+00
1.691119075955499264e+18,4.872107186358099612e-03,8.526187576126675188e-03,2.923264311814859767e-02,1.532858880000000090e-01,-1.532858880000000090e-01,9.503725056000000393e+00
1.691119075965499136e+18,-1.218026796589524903e-03,9.744214372716199224e-03,2.557856272838002556e-02,-4.598576639999999993e-01,-1.532858880000000090e-01,9.503725056000000393e+00
1.691119075975499264e+18,6.090133982947624515e-03,1.096224116930572499e-02,3.532277710109622132e-02,0.000000000000000000e+00,-1.532858880000000090e-01,9.503725056000000393e+00
1.691119075985499136e+18,-6.090133982947624515e-03,1.339829476248477480e-02,3.654080389768574882e-02,0.000000000000000000e+00,-1.532858880000000090e-01,9.657010944000001373e+00
1.691119075995499008e+18,-6.090133982947624515e-03,6.090133982947624515e-03,3.045066991473812518e-02,3.065717760000000180e-01,-3.065717760000000180e-01,9.503725056000000393e+00
1.691119076005499136e+18,-2.436053593179049806e-03,1.096224116930572499e-02,2.192448233861144999e-02,1.532858880000000090e-01,-1.532858880000000090e-01,9.503725056000000393e+00
1.691119076015499008e+18,2.436053593179049806e-03,6.090133982947624515e-03,2.679658952496954960e-02,0.000000000000000000e+00,-1.532858880000000090e-01,9.503725056000000393e+00
1.691119076025499136e+18,-1.218026796589524903e-03,9.744214372716199224e-03,3.897685749086479690e-02,3.065717760000000180e-01,-1.532858880000000090e-01,9.657010944000001373e+00
1.691119076035499008e+18,2.436053593179049806e-03,1.096224116930572499e-02,2.923264311814859767e-02,4.598576639999999993e-01,-1.532858880000000090e-01,9.963582719999999782e+00
1.691119076045499136e+18,2.436053593179049806e-03,1.218026796589524903e-02,3.410475030450670075e-02,-1.532858880000000090e-01,-1.532858880000000090e-01,9.657010944000001373e+00
1.691119076055499008e+18,6.090133982947624515e-03,1.461632155907429884e-02,3.166869671132764574e-02,4.598576639999999993e-01,-1.532858880000000090e-01,9.657010944000001373e+00
1.691119076065499136e+18,6.090133982947624515e-03,1.218026796589524903e-02,2.557856272838002556e-02,3.065717760000000180e-01,0.000000000000000000e+00,9.657010944000001373e+00
1.691119076075499008e+18,7.308160779537149418e-03,1.339829476248477480e-02,2.923264311814859767e-02,3.065717760000000180e-01,-1.532858880000000090e-01,9.503725056000000393e+00
1.691119076085499136e+18,4.872107186358099612e-03,1.096224116930572499e-02,2.923264311814859767e-02,1.532858880000000090e-01,-1.532858880000000090e-01,9.657010944000001373e+00
1.691119076095499008e+18,1.218026796589524903e-03,4.872107186358099612e-03,2.801461632155907364e-02,3.065717760000000180e-01,-1.532858880000000090e-01,9.503725056000000393e+00
1.691119076105499136e+18,6.090133982947624515e-03,8.526187576126675188e-03,2.314250913520097402e-02,1.532858880000000090e-01,-3.065717760000000180e-01,9.503725056000000393e+00
1.691119076115499008e+18,6.090133982947624515e-03,2.070645554202192595e-02,2.679658952496954960e-02,1.532858880000000090e-01,-1.532858880000000090e-01,9.503725056000000393e+00
1.691119076125499136e+18,3.654080389768574709e-03,1.583434835566382287e-02,1.705237515225335038e-02,3.065717760000000180e-01,-1.532858880000000090e-01,9.503725056000000393e+00
1.691119076135499008e+18,4.872107186358099612e-03,9.744214372716199224e-03,3.045066991473812518e-02,3.065717760000000180e-01,-1.532858880000000090e-01,9.503725056000000393e+00
1.691119076145498880e+18,1.218026796589524903e-03,3.654080389768574709e-03,3.288672350791717325e-02,0.000000000000000000e+00,-1.532858880000000090e-01,9.503725056000000393e+00
1.691119076155499008e+18,0.000000000000000000e+00,7.308160779537149418e-03,2.923264311814859767e-02,-6.131435520000000361e-01,-1.532858880000000090e-01,9.350439168000001189e+00
1.691119076165498880e+18,0.000000000000000000e+00,1.096224116930572499e-02,3.410475030450670075e-02,1.532858880000000090e-01,-3.065717760000000180e-01,9.810296832000000578e+00
1.691119076175499008e+18,1.096224116930572499e-02,1.096224116930572499e-02,3.166869671132764574e-02,3.065717760000000180e-01,-1.532858880000000090e-01,9.503725056000000393e+00
1.691119076185498880e+18,3.654080389768574709e-03,8.526187576126675188e-03,2.923264311814859767e-02,0.000000000000000000e+00,0.000000000000000000e+00,9.657010944000001373e+00
1.691119076195499008e+18,-3.654080389768574709e-03,1.096224116930572499e-02,3.288672350791717325e-02,1.532858880000000090e-01,-1.532858880000000090e-01,9.657010944000001373e+00
1.691119076205499136e+18,1.218026796589524903e-03,1.218026796589524903e-02,3.045066991473812518e-02,3.065717760000000180e-01,-3.065717760000000180e-01,9.503725056000000393e+00
1.691119076215499264e+18,4.872107186358099612e-03,6.090133982947624515e-03,3.288672350791717325e-02,1.532858880000000090e-01,0.000000000000000000e+00,9.657010944000001373e+00
1.691119076225499136e+18,-3.654080389768574709e-03,8.526187576126675188e-03,2.314250913520097402e-02,1.532858880000000090e-01,-3.065717760000000180e-01,9.657010944000001373e+00
1.691119076235499264e+18,7.308160779537149418e-03,1.218026796589524903e-02,2.557856272838002556e-02,1.532858880000000090e-01,0.000000000000000000e+00,9.503725056000000393e+00
1.691119076245499136e+18,0.000000000000000000e+00,8.526187576126675188e-03,2.801461632155907364e-02,0.000000000000000000e+00,-1.532858880000000090e-01,9.503725056000000393e+00
1.691119076255499008e+18,0.000000000000000000e+00,8.526187576126675188e-03,2.801461632155907364e-02,0.000000000000000000e+00,-1.532858880000000090e-01,9.503725056000000393e+00
1.691119076265499136e+18,4.872107186358099612e-03,1.218026796589524903e-02,4.506699147381242054e-02,1.532858880000000090e-01,-3.065717760000000180e-01,9.503725056000000393e+00
1.691119076275499008e+18,-4.872107186358099612e-03,1.948842874543239845e-02,3.166869671132764574e-02,1.532858880000000090e-01,-1.532858880000000090e-01,9.503725056000000393e+00
1.691119076285499136e+18,7.308160779537149418e-03,9.744214372716199224e-03,3.532277710109622132e-02,-1.532858880000000090e-01,-1.532858880000000090e-01,9.657010944000001373e+00
1.691119076295499008e+18,-9.744214372716199224e-03,1.218026796589524903e-02,2.314250913520097402e-02,1.532858880000000090e-01,-3.065717760000000180e-01,9.503725056000000393e+00
1.691119076305499136e+18,2.436053593179049806e-03,7.308160779537149418e-03,2.801461632155907364e-02,3.065717760000000180e-01,-1.532858880000000090e-01,9.503725056000000393e+00
1.691119076315499008e+18,1.218026796589524903e-03,1.339829476248477480e-02,2.801461632155907364e-02,3.065717760000000180e-01,-3.065717760000000180e-01,9.503725056000000393e+00
1.691119076325499136e+18,0.000000000000000000e+00,2.436053593179049806e-03,3.532277710109622132e-02,1.532858880000000090e-01,-1.532858880000000090e-01,9.657010944000001373e+00
1.691119076335499008e+18,-6.090133982947624515e-03,9.744214372716199224e-03,3.288672350791717325e-02,3.065717760000000180e-01,-3.065717760000000180e-01,9.503725056000000393e+00
1.691119076345499136e+18,1.218026796589524903e-03,4.872107186358099612e-03,3.532277710109622132e-02,3.065717760000000180e-01,-1.532858880000000090e-01,9.503725056000000393e+00
1.691119076355499008e+18,2.436053593179049806e-03,1.339829476248477480e-02,2.314250913520097402e-02,-1.532858880000000090e-01,-1.532858880000000090e-01,9.657010944000001373e+00
1.691119076365499136e+18,-1.218026796589524903e-03,2.436053593179049806e-03,3.775883069427527633e-02,1.532858880000000090e-01,-1.532858880000000090e-01,9.657010944000001373e+00
1.691119076375499008e+18,7.308160779537149418e-03,8.526187576126675188e-03,2.801461632155907364e-02,1.532858880000000090e-01,-3.065717760000000180e-01,9.503725056000000393e+00
1.691119076385498880e+18,-2.436053593179049806e-03,1.218026796589524903e-03,3.166869671132764574e-02,-1.532858880000000090e-01,0.000000000000000000e+00,9.657010944000001373e+00
1.691119076395499008e+18,4.872107186358099612e-03,9.744214372716199224e-03,2.679658952496954960e-02,1.532858880000000090e-01,-1.532858880000000090e-01,9.503725056000000393e+00
1.691119076405498880e+18,8.526187576126675188e-03,1.218026796589524903e-02,2.679658952496954960e-02,1.532858880000000090e-01,-1.532858880000000090e-01,9.503725056000000393e+00
1.691119076415499008e+18,7.308160779537149418e-03,2.436053593179049806e-03,3.288672350791717325e-02,1.532858880000000090e-01,-1.532858880000000090e-01,9.503725056000000393e+00
1.691119076425498880e+18,-7.308160779537149418e-03,9.744214372716199224e-03,3.410475030450670075e-02,0.000000000000000000e+00,-3.065717760000000180e-01,9.503725056000000393e+00
1.691119076435499008e+18,4.872107186358099612e-03,1.218026796589524903e-02,3.410475030450670075e-02,-1.532858880000000090e-01,0.000000000000000000e+00,9.503725056000000393e+00
1.691119076445498880e+18,-2.436053593179049806e-03,1.218026796589524903e-02,2.557856272838002556e-02,0.000000000000000000e+00,-1.532858880000000090e-01,9.503725056000000393e+00
1.691119076455499264e+18,1.218026796589524903e-03,7.308160779537149418e-03,2.557856272838002556e-02,3.065717760000000180e-01,-3.065717760000000180e-01,9.657010944000001373e+00
1.691119076465499136e+18,3.654080389768574709e-03,8.526187576126675188e-03,3.288672350791717325e-02,0.000000000000000000e+00,0.000000000000000000e+00,9.657010944000001373e+00
1.691119076475499264e+18,-3.654080389768574709e-03,1.339829476248477480e-02,2.436053593179049806e-02,3.065717760000000180e-01,-1.532858880000000090e-01,9.657010944000001373e+00
1.691119076485499136e+18,9.744214372716199224e-03,1.096224116930572499e-02,3.288672350791717325e-02,0.000000000000000000e+00,-3.065717760000000180e-01,9.657010944000001373e+00
1.691119076495499008e+18,6.090133982947624515e-03,7.308160779537149418e-03,2.679658952496954960e-02,0.000000000000000000e+00,-1.532858880000000090e-01,9.657010944000001373e+00
1.691119076505499136e+18,3.654080389768574709e-03,6.090133982947624515e-03,2.801461632155907364e-02,1.532858880000000090e-01,-1.532858880000000090e-01,9.503725056000000393e+00
1.691119076515499008e+18,-3.654080389768574709e-03,8.526187576126675188e-03,3.166869671132764574e-02,0.000000000000000000e+00,0.000000000000000000e+00,9.503725056000000393e+00
1.691119076525499136e+18,8.526187576126675188e-03,7.308160779537149418e-03,3.654080389768574882e-02,1.532858880000000090e-01,-1.532858880000000090e-01,9.503725056000000393e+00
1.691119076535499008e+18,4.872107186358099612e-03,1.096224116930572499e-02,3.654080389768574882e-02,-1.532858880000000090e-01,-1.532858880000000090e-01,9.350439168000001189e+00
1.691119076545499136e+18,4.872107186358099612e-03,7.308160779537149418e-03,3.410475030450670075e-02,1.532858880000000090e-01,-1.532858880000000090e-01,9.503725056000000393e+00
1.691119076555499008e+18,-2.436053593179049806e-03,1.583434835566382287e-02,2.557856272838002556e-02,3.065717760000000180e-01,-1.532858880000000090e-01,9.503725056000000393e+00
1.691119076565499136e+18,-6.090133982947624515e-03,1.096224116930572499e-02,3.166869671132764574e-02,0.000000000000000000e+00,-1.532858880000000090e-01,9.503725056000000393e+00
1.691119076575499008e+18,7.308160779537149418e-03,7.308160779537149418e-03,2.923264311814859767e-02,1.532858880000000090e-01,-1.532858880000000090e-01,9.657010944000001373e+00
1.691119076585499136e+18,-4.872107186358099612e-03,9.744214372716199224e-03,3.288672350791717325e-02,1.532858880000000090e-01,0.000000000000000000e+00,9.503725056000000393e+00
1.691119076595499008e+18,4.872107186358099612e-03,4.872107186358099612e-03,4.019488428745432440e-02,3.065717760000000180e-01,-1.532858880000000090e-01,9.657010944000001373e+00
1.691119076605499136e+18,-2.436053593179049806e-03,1.705237515225335038e-02,2.192448233861144999e-02,1.532858880000000090e-01,-3.065717760000000180e-01,9.657010944000001373e+00
1.691119076615499008e+18,1.339829476248477480e-02,8.526187576126675188e-03,3.045066991473812518e-02,1.532858880000000090e-01,-1.532858880000000090e-01,9.503725056000000393e+00
1.691119076625499136e+18,2.436053593179049806e-03,8.526187576126675188e-03,3.045066991473812518e-02,-1.532858880000000090e-01,-1.532858880000000090e-01,9.657010944000001373e+00
1.691119076635499008e+18,4.872107186358099612e-03,1.096224116930572499e-02,3.532277710109622132e-02,4.598576639999999993e-01,-3.065717760000000180e-01,9.503725056000000393e+00
1.691119076645498880e+18,1.218026796589524903e-03,1.096224116930572499e-02,2.923264311814859767e-02,1.532858880000000090e-01,-1.532858880000000090e-01,9.503725056000000393e+00
1.691119076655499008e+18,-6.090133982947624515e-03,-1.218026796589524903e-03,3.654080389768574882e-02,0.000000000000000000e+00,-1.532858880000000090e-01,9.503725056000000393e+00
1.691119076665498880e+18,-3.654080389768574709e-03,9.744214372716199224e-03,2.801461632155907364e-02,4.598576639999999993e-01,-1.532858880000000090e-01,9.503725056000000393e+00
1.691119076675499008e+18,7.308160779537149418e-03,1.218026796589524903e-02,3.288672350791717325e-02,1.532858880000000090e-01,-1.532858880000000090e-01,9.657010944000001373e+00
1.691119076685498880e+18,3.654080389768574709e-03,9.744214372716199224e-03,3.045066991473812518e-02,3.065717760000000180e-01,-1.532858880000000090e-01,9.503725056000000393e+00
1.691119076695499008e+18,0.000000000000000000e+00,1.461632155907429884e-02,2.314250913520097402e-02,-1.532858880000000090e-01,-1.532858880000000090e-01,9.657010944000001373e+00
1.691119076705499136e+18,6.090133982947624515e-03,1.339829476248477480e-02,3.288672350791717325e-02,1.532858880000000090e-01,-1.532858880000000090e-01,9.657010944000001373e+00
1.691119076715499264e+18,-1.218026796589524903e-03,9.744214372716199224e-03,2.436053593179049806e-02,3.065717760000000180e-01,-1.532858880000000090e-01,9.503725056000000393e+00
1.691119076725499136e+18,1.339829476248477480e-02,6.090133982947624515e-03,3.532277710109622132e-02,-1.532858880000000090e-01,-3.065717760000000180e-01,9.503725056000000393e+00
1.691119076735499264e+18,0.000000000000000000e+00,1.583434835566382287e-02,2.923264311814859767e-02,0.000000000000000000e+00,-1.532858880000000090e-01,9.810296832000000578e+00
1.691119076745499136e+18,6.090133982947624515e-03,3.654080389768574709e-03,4.019488428745432440e-02,4.598576639999999993e-01,-1.532858880000000090e-01,9.503725056000000393e+00
1.691119076755499008e+18,7.308160779537149418e-03,7.308160779537149418e-03,2.923264311814859767e-02,0.000000000000000000e+00,-1.532858880000000090e-01,9.657010944000001373e+00
1.691119076765499136e+18,-1.218026796589524903e-03,8.526187576126675188e-03,2.801461632155907364e-02,1.532858880000000090e-01,-1.532858880000000090e-01,9.503725056000000393e+00
1.691119076775499008e+18,-2.436053593179049806e-03,1.339829476248477480e-02,2.557856272838002556e-02,1.532858880000000090e-01,-3.065717760000000180e-01,9.657010944000001373e+00
1.691119076785499136e+18,6.090133982947624515e-03,1.339829476248477480e-02,3.410475030450670075e-02,0.000000000000000000e+00,-1.532858880000000090e-01,9.657010944000001373e+00
1.691119076795499008e+18,1.218026796589524903e-03,7.308160779537149418e-03,3.045066991473812518e-02,0.000000000000000000e+00,-3.065717760000000180e-01,9.503725056000000393e+00
1.691119076805499136e+18,-1.218026796589524903e-03,7.308160779537149418e-03,2.923264311814859767e-02,4.598576639999999993e-01,0.000000000000000000e+00,9.503725056000000393e+00
1.691119076815499008e+18,-1.218026796589524903e-03,8.526187576126675188e-03,3.045066991473812518e-02,4.598576639999999993e-01,-3.065717760000000180e-01,9.657010944000001373e+00
1.691119076825499136e+18,2.436053593179049806e-03,1.218026796589524903e-02,3.166869671132764574e-02,1.532858880000000090e-01,-3.065717760000000180e-01,9.503725056000000393e+00
1.691119076835499008e+18,3.654080389768574709e-03,9.744214372716199224e-03,3.288672350791717325e-02,-1.532858880000000090e-01,-1.532858880000000090e-01,9.657010944000001373e+00
1.691119076845499136e+18,-1.218026796589524903e-03,9.744214372716199224e-03,3.045066991473812518e-02,4.598576639999999993e-01,0.000000000000000000e+00,9.657010944000001373e+00
1.691119076855499008e+18,-8.526187576126675188e-03,1.827040194884287441e-02,2.923264311814859767e-02,3.065717760000000180e-01,0.000000000000000000e+00,9.657010944000001373e+00
1.691119076865499136e+18,2.436053593179049806e-03,9.744214372716199224e-03,3.532277710109622132e-02,3.065717760000000180e-01,-1.532858880000000090e-01,9.503725056000000393e+00
1.691119076875499008e+18,7.308160779537149418e-03,1.583434835566382287e-02,2.801461632155907364e-02,0.000000000000000000e+00,-1.532858880000000090e-01,9.657010944000001373e+00
1.691119076885498880e+18,-1.218026796589524903e-03,6.090133982947624515e-03,3.045066991473812518e-02,0.000000000000000000e+00,-1.532858880000000090e-01,9.350439168000001189e+00
1.691119076895499008e+18,2.436053593179049806e-03,9.744214372716199224e-03,3.045066991473812518e-02,0.000000000000000000e+00,-1.532858880000000090e-01,9.503725056000000393e+00
1.691119076905498880e+18,-3.654080389768574709e-03,4.872107186358099612e-03,3.654080389768574882e-02,1.532858880000000090e-01,-1.532858880000000090e-01,9.503725056000000393e+00
1.691119076915499008e+18,4.872107186358099612e-03,1.218026796589524903e-02,3.532277710109622132e-02,1.532858880000000090e-01,-1.532858880000000090e-01,9.657010944000001373e+00
1.691119076925498880e+18,4.872107186358099612e-03,8.526187576126675188e-03,2.801461632155907364e-02,0.000000000000000000e+00,-1.532858880000000090e-01,9.657010944000001373e+00
1.691119076935499008e+18,0.000000000000000000e+00,1.827040194884287441e-02,2.923264311814859767e-02,-1.532858880000000090e-01,-1.532858880000000090e-01,9.503725056000000393e+00
1.691119076945498880e+18,7.308160779537149418e-03,9.744214372716199224e-03,2.923264311814859767e-02,1.532858880000000090e-01,-1.532858880000000090e-01,9.503725056000000393e+00
1.691119076955499264e+18,-2.436053593179049806e-03,4.872107186358099612e-03,2.436053593179049806e-02,1.532858880000000090e-01,-1.532858880000000090e-01,9.503725056000000393e+00
1.691119076965499136e+18,6.090133982947624515e-03,1.583434835566382287e-02,3.288672350791717325e-02,6.131435520000000361e-01,-1.532858880000000090e-01,9.963582719999999782e+00
1.691119076975499264e+18,3.654080389768574709e-03,1.096224116930572499e-02,2.436053593179049806e-02,1.532858880000000090e-01,-1.532858880000000090e-01,9.657010944000001373e+00
1.691119076985499136e+18,0.000000000000000000e+00,6.090133982947624515e-03,3.166869671132764574e-02,3.065717760000000180e-01,-1.532858880000000090e-01,9.657010944000001373e+00
1.691119076995499008e+18,4.872107186358099612e-03,1.218026796589524903e-02,3.288672350791717325e-02,1.532858880000000090e-01,-1.532858880000000090e-01,9.503725056000000393e+00
1.691119077005499136e+18,0.000000000000000000e+00,1.461632155907429884e-02,2.801461632155907364e-02,9.197153279999999986e-01,-3.065717760000000180e-01,9.503725056000000393e+00
1.691119077015499008e+18,6.090133982947624515e-03,-2.436053593179049806e-03,3.166869671132764574e-02,1.532858880000000090e-01,-1.532858880000000090e-01,9.657010944000001373e+00
1.691119077025499136e+18,-6.090133982947624515e-03,7.308160779537149418e-03,3.166869671132764574e-02,4.598576639999999993e-01,-1.532858880000000090e-01,9.503725056000000393e+00
1.691119077035499008e+18,2.436053593179049806e-03,7.308160779537149418e-03,3.045066991473812518e-02,3.065717760000000180e-01,-3.065717760000000180e-01,9.503725056000000393e+00
1.691119077045499136e+18,8.526187576126675188e-03,1.096224116930572499e-02,2.801461632155907364e-02,0.000000000000000000e+00,-1.532858880000000090e-01,9.503725056000000393e+00
1.691119077055499008e+18,-3.654080389768574709e-03,1.218026796589524903e-02,3.166869671132764574e-02,0.000000000000000000e+00,-3.065717760000000180e-01,9.503725056000000393e+00
1.691119077065499136e+18,7.308160779537149418e-03,6.090133982947624515e-03,2.923264311814859767e-02,1.532858880000000090e-01,-1.532858880000000090e-01,9.503725056000000393e+00
1.691119077075499008e+18,6.090133982947624515e-03,4.872107186358099612e-03,2.923264311814859767e-02,1.532858880000000090e-01,-1.532858880000000090e-01,9.657010944000001373e+00
1.691119077085499136e+18,2.436053593179049806e-03,1.218026796589524903e-02,3.532277710109622132e-02,3.065717760000000180e-01,-3.065717760000000180e-01,9.503725056000000393e+00
1.691119077095499008e+18,1.218026796589524903e-03,1.218026796589524903e-03,3.410475030450670075e-02,1.532858880000000090e-01,-1.532858880000000090e-01,9.503725056000000393e+00
1.691119077105499136e+18,0.000000000000000000e+00,1.218026796589524903e-02,3.166869671132764574e-02,1.532858880000000090e-01,-3.065717760000000180e-01,9.503725056000000393e+00
1.691119077115499008e+18,2.436053593179049806e-03,1.461632155907429884e-02,2.314250913520097402e-02,1.532858880000000090e-01,-1.532858880000000090e-01,9.657010944000001373e+00
1.691119077125499136e+18,7.308160779537149418e-03,1.461632155907429884e-02,3.166869671132764574e-02,0.000000000000000000e+00,-1.532858880000000090e-01,9.657010944000001373e+00
1.691119077135499008e+18,-2.436053593179049806e-03,1.096224116930572499e-02,3.166869671132764574e-02,0.000000000000000000e+00,-1.532858880000000090e-01,9.503725056000000393e+00
1.691119077145498880e+18,3.654080389768574709e-03,9.744214372716199224e-03,2.923264311814859767e-02,1.532858880000000090e-01,-1.532858880000000090e-01,9.657010944000001373e+00
1.691119077155499008e+18,2.436053593179049806e-03,1.096224116930572499e-02,2.923264311814859767e-02,1.532858880000000090e-01,-1.532858880000000090e-01,9.503725056000000393e+00
1.691119077165498880e+18,3.654080389768574709e-03,6.090133982947624515e-03,2.923264311814859767e-02,0.000000000000000000e+00,-1.532858880000000090e-01,9.503725056000000393e+00
1.691119077175499008e+18,-2.436053593179049806e-03,9.744214372716199224e-03,2.923264311814859767e-02,3.065717760000000180e-01,-1.532858880000000090e-01,9.503725056000000393e+00
1.691119077185498880e+18,-6.090133982947624515e-03,4.872107186358099612e-03,3.166869671132764574e-02,1.532858880000000090e-01,0.000000000000000000e+00,9.810296832000000578e+00
1.691119077195499008e+18,-1.218026796589524903e-03,3.654080389768574709e-03,3.410475030450670075e-02,0.000000000000000000e+00,1.532858880000000090e-01,9.503725056000000393e+00
1.691119077205499136e+18,-1.218026796589524903e-03,2.436053593179049806e-03,2.557856272838002556e-02,1.532858880000000090e-01,-1.532858880000000090e-01,9.503725056000000393e+00
1.691119077215499264e+18,-3.654080389768574709e-03,1.096224116930572499e-02,2.923264311814859767e-02,0.000000000000000000e+00,0.000000000000000000e+00,9.503725056000000393e+00
1.691119077225499136e+18,4.872107186358099612e-03,3.654080389768574709e-03,3.045066991473812518e-02,1.532858880000000090e-01,-1.532858880000000090e-01,9.503725056000000393e+00
1.691119077235499264e+18,-2.436053593179049806e-03,1.705237515225335038e-02,3.532277710109622132e-02,0.000000000000000000e+00,0.000000000000000000e+00,9.503725056000000393e+00
1.691119077245499136e+18,6.090133982947624515e-03,1.218026796589524903e-02,3.288672350791717325e-02,0.000000000000000000e+00,-1.532858880000000090e-01,9.350439168000001189e+00
1.691119077255499008e+18,-7.308160779537149418e-03,1.096224116930572499e-02,2.192448233861144999e-02,3.065717760000000180e-01,-1.532858880000000090e-01,9.503725056000000393e+00
1.691119077265499136e+18,-4.872107186358099612e-03,1.218026796589524903e-02,3.166869671132764574e-02,3.065717760000000180e-01,-1.532858880000000090e-01,9.503725056000000393e+00
1.691119077275499008e+18,1.218026796589524903e-03,1.461632155907429884e-02,3.166869671132764574e-02,0.000000000000000000e+00,0.000000000000000000e+00,9.657010944000001373e+00
1.691119077285499136e+18,-2.436053593179049806e-03,1.218026796589524903e-02,2.679658952496954960e-02,0.000000000000000000e+00,-1.532858880000000090e-01,9.657010944000001373e+00
1.691119077295499008e+18,0.000000000000000000e+00,8.526187576126675188e-03,2.557856272838002556e-02,3.065717760000000180e-01,-1.532858880000000090e-01,9.503725056000000393e+00
1.691119077305499136e+18,-1.218026796589524903e-03,2.436053593179049806e-03,2.557856272838002556e-02,3.065717760000000180e-01,-1.532858880000000090e-01,9.503725056000000393e+00
1.691119077315499008e+18,6.090133982947624515e-03,8.526187576126675188e-03,3.410475030450670075e-02,1.532858880000000090e-01,0.000000000000000000e+00,9.503725056000000393e+00
1.691119077325499136e+18,1.218026796589524903e-03,1.339829476248477480e-02,3.532277710109622132e-02,3.065717760000000180e-01,-1.532858880000000090e-01,9.503725056000000393e+00
1.691119077335499008e+18,-4.872107186358099612e-03,1.339829476248477480e-02,3.166869671132764574e-02,1.532858880000000090e-01,-3.065717760000000180e-01,9.503725056000000393e+00
1.691119077345499136e+18,1.218026796589524903e-03,8.526187576126675188e-03,3.410475030450670075e-02,3.065717760000000180e-01,-1.532858880000000090e-01,9.350439168000001189e+00
1.691119077355499008e+18,-8.526187576126675188e-03,1.583434835566382287e-02,3.410475030450670075e-02,-3.065717760000000180e-01,-1.532858880000000090e-01,9.657010944000001373e+00
1.691119077365499136e+18,-2.436053593179049806e-03,1.096224116930572499e-02,3.288672350791717325e-02,3.065717760000000180e-01,-1.532858880000000090e-01,9.657010944000001373e+00
1.691119077375499008e+18,0.000000000000000000e+00,3.654080389768574709e-03,3.045066991473812518e-02,1.532858880000000090e-01,-1.532858880000000090e-01,9.503725056000000393e+00
1.691119077385498880e+18,4.872107186358099612e-03,9.744214372716199224e-03,2.923264311814859767e-02,3.065717760000000180e-01,0.000000000000000000e+00,9.657010944000001373e+00
1.691119077395499008e+18,7.308160779537149418e-03,9.744214372716199224e-03,3.410475030450670075e-02,1.532858880000000090e-01,-1.532858880000000090e-01,9.657010944000001373e+00
1.691119077405498880e+18,2.436053593179049806e-03,7.308160779537149418e-03,2.679658952496954960e-02,1.532858880000000090e-01,0.000000000000000000e+00,9.503725056000000393e+00
1.691119077415499008e+18,-1.218026796589524903e-03,3.654080389768574709e-03,3.410475030450670075e-02,3.065717760000000180e-01,-1.532858880000000090e-01,9.503725056000000393e+00
1.691119077425498880e+18,-3.654080389768574709e-03,9.744214372716199224e-03,3.288672350791717325e-02,-3.065717760000000180e-01,0.000000000000000000e+00,9.657010944000001373e+00
1.691119077435499008e+18,0.000000000000000000e+00,9.744214372716199224e-03,2.923264311814859767e-02,3.065717760000000180e-01,-1.532858880000000090e-01,9.503725056000000393e+00
1.691119077445498880e+18,0.000000000000000000e+00,9.744214372716199224e-03,3.045066991473812518e-02,1.532858880000000090e-01,-3.065717760000000180e-01,9.503725056000000393e+00
1.691119077455499264e+18,4.872107186358099612e-03,4.872107186358099612e-03,2.923264311814859767e-02,3.065717760000000180e-01,-1.532858880000000090e-01,9.503725056000000393e+00
1.691119077465499136e+18,3.654080389768574709e-03,1.218026796589524903e-02,3.410475030450670075e-02,3.065717760000000180e-01,-1.532858880000000090e-01,9.657010944000001373e+00
1.691119077475499264e+18,1.461632155907429884e-02,9.744214372716199224e-03,3.166869671132764574e-02,3.065717760000000180e-01,-1.532858880000000090e-01,9.503725056000000393e+00
1.691119077485499136e+18,-8.526187576126675188e-03,9.744214372716199224e-03,3.045066991473812518e-02,0.000000000000000000e+00,-1.532858880000000090e-01,9.657010944000001373e+00
1.691119077495499008e+18,7.308160779537149418e-03,7.308160779537149418e-03,3.897685749086479690e-02,1.532858880000000090e-01,-1.532858880000000090e-01,9.657010944000001373e+00
1.691119077505499136e+18,0.000000000000000000e+00,8.526187576126675188e-03,3.532277710109622132e-02,3.065717760000000180e-01,-3.065717760000000180e-01,9.657010944000001373e+00
1.691119077515499008e+18,4.872107186358099612e-03,7.308160779537149418e-03,3.045066991473812518e-02,0.000000000000000000e+00,-1.532858880000000090e-01,9.503725056000000393e+00
1.691119077525499136e+18,-7.308160779537149418e-03,8.526187576126675188e-03,2.436053593179049806e-02,1.532858880000000090e-01,-1.532858880000000090e-01,9.657010944000001373e+00
1.691119077535499008e+18,1.218026796589524903e-03,1.218026796589524903e-02,3.045066991473812518e-02,3.065717760000000180e-01,0.000000000000000000e+00,9.503725056000000393e+00
1.691119077545499136e+18,0.000000000000000000e+00,1.339829476248477480e-02,3.166869671132764574e-02,1.532858880000000090e-01,1.532858880000000090e-01,9.503725056000000393e+00
1.691119077555499008e+18,-6.090133982947624515e-03,1.218026796589524903e-02,2.801461632155907364e-02,1.532858880000000090e-01,-3.065717760000000180e-01,9.503725056000000393e+00
1.691119077565499136e+18,8.526187576126675188e-03,7.308160779537149418e-03,3.288672350791717325e-02,3.065717760000000180e-01,-1.532858880000000090e-01,9.503725056000000393e+00
1.691119077575499008e+18,-8.526187576126675188e-03,3.654080389768574709e-03,3.288672350791717325e-02,1.532858880000000090e-01,-1.532858880000000090e-01,9.657010944000001373e+00
1.691119077585499136e+18,7.308160779537149418e-03,8.526187576126675188e-03,4.141291108404385191e-02,3.065717760000000180e-01,-3.065717760000000180e-01,9.810296832000000578e+00
1.691119077595499008e+18,0.000000000000000000e+00,1.096224116930572499e-02,2.436053593179049806e-02,1.532858880000000090e-01,0.000000000000000000e+00,9.503725056000000393e+00
1.691119077605499136e+18,1.218026796589524903e-03,8.526187576126675188e-03,3.532277710109622132e-02,1.532858880000000090e-01,-1.532858880000000090e-01,9.657010944000001373e+00
1.691119077615499008e+18,-3.654080389768574709e-03,3.654080389768574709e-03,3.045066991473812518e-02,3.065717760000000180e-01,-1.532858880000000090e-01,9.503725056000000393e+00
1.691119077625499136e+18,2.436053593179049806e-03,1.096224116930572499e-02,2.192448233861144999e-02,3.065717760000000180e-01,-1.532858880000000090e-01,9.503725056000000393e+00
1.691119077635499008e+18,-4.872107186358099612e-03,1.218026796589524903e-02,3.410475030450670075e-02,3.065717760000000180e-01,-1.532858880000000090e-01,9.657010944000001373e+00
1.691119077645498880e+18,-2.436053593179049806e-03,7.308160779537149418e-03,3.410475030450670075e-02,1.532858880000000090e-01,-3.065717760000000180e-01,9.503725056000000393e+00
1.691119077655499008e+18,2.436053593179049806e-03,1.827040194884287441e-02,3.045066991473812518e-02,3.065717760000000180e-01,-3.065717760000000180e-01,9.503725056000000393e+00
1.691119077665498880e+18,4.872107186358099612e-03,1.461632155907429884e-02,2.679658952496954960e-02,0.000000000000000000e+00,-1.532858880000000090e-01,9.503725056000000393e+00
1.691119077675499008e+18,2.436053593179049806e-03,9.744214372716199224e-03,2.923264311814859767e-02,3.065717760000000180e-01,-1.532858880000000090e-01,9.657010944000001373e+00
1.691119077685498880e+18,4.872107186358099612e-03,1.339829476248477480e-02,2.557856272838002556e-02,1.532858880000000090e-01,-1.532858880000000090e-01,9.657010944000001373e+00
1.691119077695499008e+18,4.872107186358099612e-03,1.218026796589524903e-02,2.557856272838002556e-02,1.532858880000000090e-01,-3.065717760000000180e-01,9.503725056000000393e+00
1.691119077705499136e+18,-2.436053593179049806e-03,1.096224116930572499e-02,3.410475030450670075e-02,1.532858880000000090e-01,-1.532858880000000090e-01,9.657010944000001373e+00
1.691119077715499264e+18,7.308160779537149418e-03,6.090133982947624515e-03,3.532277710109622132e-02,1.532858880000000090e-01,-1.532858880000000090e-01,9.657010944000001373e+00
1.691119077725499136e+18,6.090133982947624515e-03,1.705237515225335038e-02,2.192448233861144999e-02,0.000000000000000000e+00,-1.532858880000000090e-01,9.503725056000000393e+00
1.691119077735499264e+18,2.436053593179049806e-03,3.654080389768574709e-03,3.288672350791717325e-02,-6.131435520000000361e-01,-1.532858880000000090e-01,9.350439168000001189e+00
1.691119077745499136e+18,-1.218026796589524903e-03,1.218026796589524903e-03,3.410475030450670075e-02,1.532858880000000090e-01,-1.532858880000000090e-01,9.657010944000001373e+00
1.691119077755499008e+18,6.090133982947624515e-03,1.705237515225335038e-02,2.801461632155907364e-02,-1.532858880000000090e-01,-1.532858880000000090e-01,9.657010944000001373e+00
1.691119077765499136e+18,2.436053593179049806e-03,1.096224116930572499e-02,3.166869671132764574e-02,1.532858880000000090e-01,-1.532858880000000090e-01,9.503725056000000393e+00
1.691119077775499008e+18,0.000000000000000000e+00,1.705237515225335038e-02,2.557856272838002556e-02,1.532858880000000090e-01,-1.532858880000000090e-01,9.657010944000001373e+00
1.691119077785499136e+18,4.872107186358099612e-03,1.339829476248477480e-02,3.775883069427527633e-02,1.532858880000000090e-01,-1.532858880000000090e-01,9.503725056000000393e+00
1.691119077795499008e+18,-1.705237515225335038e-02,9.744214372716199224e-03,3.775883069427527633e-02,1.532858880000000090e-01,-3.065717760000000180e-01,9.503725056000000393e+00
1.691119077805499136e+18,1.461632155907429884e-02,1.096224116930572499e-02,3.288672350791717325e-02,3.065717760000000180e-01,-1.532858880000000090e-01,9.503725056000000393e+00
1.691119077815499008e+18,-3.654080389768574709e-03,2.436053593179049806e-03,3.532277710109622132e-02,0.000000000000000000e+00,-1.532858880000000090e-01,9.657010944000001373e+00
1.691119077825499136e+18,9.744214372716199224e-03,4.872107186358099612e-03,2.801461632155907364e-02,1.532858880000000090e-01,-1.532858880000000090e-01,9.503725056000000393e+00
1.691119077835499008e+18,3.654080389768574709e-03,8.526187576126675188e-03,3.288672350791717325e-02,1.532858880000000090e-01,-1.532858880000000090e-01,9.810296832000000578e+00
1.691119077845499136e+18,-3.654080389768574709e-03,4.872107186358099612e-03,3.897685749086479690e-02,1.532858880000000090e-01,0.000000000000000000e+00,9.503725056000000393e+00
1.691119077855499008e+18,0.000000000000000000e+00,7.308160779537149418e-03,3.166869671132764574e-02,-6.131435520000000361e-01,-1.532858880000000090e-01,9.503725056000000393e+00
1.691119077865499136e+18,3.654080389768574709e-03,1.096224116930572499e-02,3.532277710109622132e-02,1.532858880000000090e-01,-1.532858880000000090e-01,9.657010944000001373e+00
1.691119077875499008e+18,1.218026796589524903e-03,8.526187576126675188e-03,2.679658952496954960e-02,1.532858880000000090e-01,-3.065717760000000180e-01,9.657010944000001373e+00
1.691119077885498880e+18,-2.436053593179049806e-03,1.461632155907429884e-02,3.410475030450670075e-02,1.532858880000000090e-01,-1.532858880000000090e-01,9.657010944000001373e+00
1.691119077895499008e+18,-1.218026796589524903e-03,1.583434835566382287e-02,3.166869671132764574e-02,3.065717760000000180e-01,-1.532858880000000090e-01,9.350439168000001189e+00
1.691119077905498880e+18,3.654080389768574709e-03,1.096224116930572499e-02,3.288672350791717325e-02,1.532858880000000090e-01,-1.532858880000000090e-01,9.657010944000001373e+00
1.691119077915499008e+18,4.872107186358099612e-03,6.090133982947624515e-03,3.166869671132764574e-02,1.532858880000000090e-01,-3.065717760000000180e-01,9.503725056000000393e+00
1.691119077925498880e+18,-7.308160779537149418e-03,1.583434835566382287e-02,3.045066991473812518e-02,1.532858880000000090e-01,-3.065717760000000180e-01,9.810296832000000578e+00
1.691119077935499008e+18,9.744214372716199224e-03,1.218026796589524903e-02,3.045066991473812518e-02,1.532858880000000090e-01,0.000000000000000000e+00,9.657010944000001373e+00
1.691119077945498880e+18,2.436053593179049806e-03,1.705237515225335038e-02,3.166869671132764574e-02,1.532858880000000090e-01,-1.532858880000000090e-01,9.657010944000001373e+00
1.691119077955499264e+18,3.654080389768574709e-03,1.339829476248477480e-02,3.045066991473812518e-02,0.000000000000000000e+00,-3.065717760000000180e-01,9.503725056000000393e+00
1.691119077965499136e+18,3.654080389768574709e-03,1.096224116930572499e-02,2.679658952496954960e-02,1.532858880000000090e-01,-3.065717760000000180e-01,9.657010944000001373e+00
1.691119077975499264e+18,2.436053593179049806e-03,6.090133982947624515e-03,2.923264311814859767e-02,0.000000000000000000e+00,0.000000000000000000e+00,9.657010944000001373e+00
1.691119077985499136e+18,2.436053593179049806e-03,1.218026796589524903e-03,3.654080389768574882e-02,0.000000000000000000e+00,-1.532858880000000090e-01,9.503725056000000393e+00
1.691119077995499008e+18,3.654080389768574709e-03,1.096224116930572499e-02,2.679658952496954960e-02,0.000000000000000000e+00,-1.532858880000000090e-01,9.503725056000000393e+00
1.691119078005499136e+18,-2.436053593179049806e-03,8.526187576126675188e-03,3.166869671132764574e-02,-1.532858880000000090e-01,-1.532858880000000090e-01,9.350439168000001189e+00
1.691119078015499008e+18,6.090133982947624515e-03,7.308160779537149418e-03,3.288672350791717325e-02,1.532858880000000090e-01,-1.532858880000000090e-01,9.503725056000000393e+00
1.691119078025499136e+18,-1.218026796589524903e-03,3.654080389768574709e-03,2.923264311814859767e-02,3.065717760000000180e-01,-1.532858880000000090e-01,9.657010944000001373e+00
1.691119078035499008e+18,4.872107186358099612e-03,1.096224116930572499e-02,2.557856272838002556e-02,1.532858880000000090e-01,-1.532858880000000090e-01,9.503725056000000393e+00
1.691119078045499136e+18,4.872107186358099612e-03,9.744214372716199224e-03,3.045066991473812518e-02,1.532858880000000090e-01,-3.065717760000000180e-01,9.503725056000000393e+00
1.691119078055499008e+18,-8.526187576126675188e-03,1.461632155907429884e-02,2.801461632155907364e-02,1.532858880000000090e-01,-1.532858880000000090e-01,9.503725056000000393e+00
1.691119078065499136e+18,-1.218026796589524903e-03,9.744214372716199224e-03,3.410475030450670075e-02,1.532858880000000090e-01,-1.532858880000000090e-01,9.657010944000001373e+00
1.691119078075499008e+18,4.872107186358099612e-03,1.461632155907429884e-02,4.019488428745432440e-02,1.532858880000000090e-01,-1.532858880000000090e-01,9.503725056000000393e+00
1.691119078085499136e+18,3.654080389768574709e-03,1.096224116930572499e-02,3.166869671132764574e-02,0.000000000000000000e+00,-3.065717760000000180e-01,9.657010944000001373e+00
1.691119078095499008e+18,1.218026796589524903e-03,8.526187576126675188e-03,2.801461632155907364e-02,0.000000000000000000e+00,-1.532858880000000090e-01,9.657010944000001373e+00
1.691119078105499136e+18,-2.436053593179049806e-03,7.308160779537149418e-03,2.923264311814859767e-02,3.065717760000000180e-01,-1.532858880000000090e-01,9.657010944000001373e+00
1.691119078115499008e+18,2.436053593179049806e-03,6.090133982947624515e-03,3.166869671132764574e-02,0.000000000000000000e+00,-1.532858880000000090e-01,9.657010944000001373e+00
1.691119078125499136e+18,1.096224116930572499e-02,1.461632155907429884e-02,3.045066991473812518e-02,3.065717760000000180e-01,0.000000000000000000e+00,9.657010944000001373e+00
1.691119078135499008e+18,7.308160779537149418e-03,1.461632155907429884e-02,3.532277710109622132e-02,1.532858880000000090e-01,-3.065717760000000180e-01,9.657010944000001373e+00
1.691119078145498880e+18,-2.436053593179049806e-03,8.526187576126675188e-03,1.948842874543239845e-02,1.532858880000000090e-01,-1.532858880000000090e-01,9.657010944000001373e+00
1.691119078155499008e+18,-7.308160779537149418e-03,8.526187576126675188e-03,2.923264311814859767e-02,3.065717760000000180e-01,-1.532858880000000090e-01,9.503725056000000393e+00
1.691119078165498880e+18,-3.654080389768574709e-03,6.090133982947624515e-03,2.679658952496954960e-02,-3.065717760000000180e-01,-1.532858880000000090e-01,9.503725056000000393e+00
1.691119078175499008e+18,-6.090133982947624515e-03,4.872107186358099612e-03,2.679658952496954960e-02,0.000000000000000000e+00,0.000000000000000000e+00,9.657010944000001373e+00
1.691119078185498880e+18,-1.218026796589524903e-03,8.526187576126675188e-03,3.410475030450670075e-02,1.532858880000000090e-01,-1.532858880000000090e-01,9.657010944000001373e+00
1.691119078195499008e+18,-2.436053593179049806e-03,6.090133982947624515e-03,3.410475030450670075e-02,3.065717760000000180e-01,-1.532858880000000090e-01,9.810296832000000578e+00
1.691119078205499136e+18,2.436053593179049806e-03,7.308160779537149418e-03,3.288672350791717325e-02,1.532858880000000090e-01,-1.532858880000000090e-01,9.657010944000001373e+00
1.691119078215499264e+18,-2.436053593179049806e-03,1.218026796589524903e-02,2.801461632155907364e-02,1.532858880000000090e-01,0.000000000000000000e+00,9.503725056000000393e+00
1.691119078225499136e+18,7.308160779537149418e-03,1.096224116930572499e-02,3.166869671132764574e-02,1.532858880000000090e-01,-3.065717760000000180e-01,9.503725056000000393e+00
1.691119078235499264e+18,-6.090133982947624515e-03,1.096224116930572499e-02,2.923264311814859767e-02,3.065717760000000180e-01,-1.532858880000000090e-01,9.657010944000001373e+00
1.691119078245499136e+18,9.744214372716199224e-03,9.744214372716199224e-03,2.557856272838002556e-02,3.065717760000000180e-01,-1.532858880000000090e-01,9.503725056000000393e+00
1.691119078255499008e+18,7.308160779537149418e-03,8.526187576126675188e-03,2.923264311814859767e-02,1.532858880000000090e-01,0.000000000000000000e+00,9.657010944000001373e+00
1.691119078265499136e+18,6.090133982947624515e-03,6.090133982947624515e-03,3.410475030450670075e-02,0.000000000000000000e+00,-3.065717760000000180e-01,9.810296832000000578e+00
1.691119078275499008e+18,-6.090133982947624515e-03,1.218026796589524903e-02,2.436053593179049806e-02,0.000000000000000000e+00,-3.065717760000000180e-01,9.503725056000000393e+00
1.691119078285499136e+18,2.436053593179049806e-03,9.744214372716199224e-03,2.192448233861144999e-02,1.532858880000000090e-01,-1.532858880000000090e-01,9.503725056000000393e+00
1.691119078295499008e+18,-7.308160779537149418e-03,7.308160779537149418e-03,3.654080389768574882e-02,3.065717760000000180e-01,-1.532858880000000090e-01,9.503725056000000393e+00
1.691119078305499136e+18,8.526187576126675188e-03,1.705237515225335038e-02,3.410475030450670075e-02,1.532858880000000090e-01,-1.532858880000000090e-01,9.503725056000000393e+00
1.691119078315499008e+18,6.090133982947624515e-03,3.654080389768574709e-03,3.410475030450670075e-02,3.065717760000000180e-01,0.000000000000000000e+00,9.657010944000001373e+00
1.691119078325499136e+18,4.872107186358099612e-03,8.526187576126675188e-03,2.192448233861144999e-02,3.065717760000000180e-01,-1.532858880000000090e-01,9.503725056000000393e+00
1.691119078335499008e+18,1.096224116930572499e-02,4.872107186358099612e-03,2.923264311814859767e-02,3.065717760000000180e-01,-1.532858880000000090e-01,9.657010944000001373e+00
1.691119078345499136e+18,8.526187576126675188e-03,6.090133982947624515e-03,2.801461632155907364e-02,-1.532858880000000090e-01,-1.532858880000000090e-01,9.657010944000001373e+00
1.691119078355499008e+18,1.339829476248477480e-02,3.654080389768574709e-03,3.775883069427527633e-02,0.000000000000000000e+00,-1.532858880000000090e-01,9.657010944000001373e+00
1.691119078365499136e+18,9.744214372716199224e-03,3.654080389768574709e-03,3.045066991473812518e-02,4.598576639999999993e-01,-3.065717760000000180e-01,9.503725056000000393e+00
1.691119078375499008e+18,-1.218026796589524903e-03,4.872107186358099612e-03,2.801461632155907364e-02,0.000000000000000000e+00,-1.532858880000000090e-01,9.657010944000001373e+00
1.691119078385498880e+18,1.218026796589524903e-03,1.096224116930572499e-02,3.045066991473812518e-02,3.065717760000000180e-01,-1.532858880000000090e-01,9.503725056000000393e+00
1.691119078395499008e+18,9.744214372716199224e-03,1.218026796589524903e-03,3.654080389768574882e-02,3.065717760000000180e-01,-1.532858880000000090e-01,9.503725056000000393e+00
1.691119078405498880e+18,-1.218026796589524903e-03,1.096224116930572499e-02,3.532277710109622132e-02,1.532858880000000090e-01,-1.532858880000000090e-01,9.503725056000000393e+00
1.691119078415499008e+18,8.526187576126675188e-03,7.308160779537149418e-03,3.166869671132764574e-02,1.532858880000000090e-01,-1.532858880000000090e-01,9.503725056000000393e+00
1.691119078425498880e+18,0.000000000000000000e+00,4.872107186358099612e-03,3.045066991473812518e-02,1.532858880000000090e-01,0.000000000000000000e+00,9.350439168000001189e+00
1.691119078435499008e+18,6.090133982947624515e-03,1.218026796589524903e-02,3.045066991473812518e-02,0.000000000000000000e+00,-1.532858880000000090e-01,9.657010944000001373e+00
1.691119078445498880e+18,0.000000000000000000e+00,7.308160779537149418e-03,4.141291108404385191e-02,0.000000000000000000e+00,-1.532858880000000090e-01,9.657010944000001373e+00
1.691119078455499264e+18,6.090133982947624515e-03,8.526187576126675188e-03,2.679658952496954960e-02,1.532858880000000090e-01,0.000000000000000000e+00,9.350439168000001189e+00
1.691119078465499136e+18,7.308160779537149418e-03,7.308160779537149418e-03,3.775883069427527633e-02,1.532858880000000090e-01,-3.065717760000000180e-01,9.503725056000000393e+00
1.691119078475499264e+18,-2.436053593179049806e-03,1.096224116930572499e-02,3.532277710109622132e-02,1.532858880000000090e-01,-1.532858880000000090e-01,9.503725056000000393e+00
1.691119078485499136e+18,4.872107186358099612e-03,-1.218026796589524903e-03,3.045066991473812518e-02,1.532858880000000090e-01,-1.532858880000000090e-01,9.503725056000000393e+00
1.691119078495499008e+18,0.000000000000000000e+00,8.526187576126675188e-03,3.166869671132764574e-02,0.000000000000000000e+00,-1.532858880000000090e-01,9.350439168000001189e+00
1.691119078505499136e+18,7.308160779537149418e-03,8.526187576126675188e-03,3.288672350791717325e-02,3.065717760000000180e-01,-1.532858880000000090e-01,9.503725056000000393e+00
1.691119078515499008e+18,7.308160779537149418e-03,1.096224116930572499e-02,3.288672350791717325e-02,-1.532858880000000090e-01,-1.532858880000000090e-01,9.657010944000001373e+00
1.691119078525499136e+18,6.090133982947624515e-03,1.218026796589524903e-02,2.436053593179049806e-02,3.065717760000000180e-01,-1.532858880000000090e-01,9.503725056000000393e+00
1.691119078535499008e+18,3.654080389768574709e-03,1.096224116930572499e-02,3.532277710109622132e-02,0.000000000000000000e+00,0.000000000000000000e+00,9.503725056000000393e+00
1.691119078545499136e+18,-1.218026796589524903e-03,1.339829476248477480e-02,3.532277710109622132e-02,1.532858880000000090e-01,-1.532858880000000090e-01,9.503725056000000393e+00
1.691119078555499008e+18,1.339829476248477480e-02,9.744214372716199224e-03,3.532277710109622132e-02,3.065717760000000180e-01,-1.532858880000000090e-01,9.657010944000001373e+00
1.691119078565499136e+18,-4.872107186358099612e-03,8.526187576126675188e-03,2.801461632155907364e-02,3.065717760000000180e-01,-1.532858880000000090e-01,9.503725056000000393e+00
1.691119078575499008e+18,3.654080389768574709e-03,1.218026796589524903e-02,3.045066991473812518e-02,0.000000000000000000e+00,-1.532858880000000090e-01,9.657010944000001373e+00
1.691119078585499136e+18,-1.218026796589524903e-03,6.090133982947624515e-03,2.923264311814859767e-02,3.065717760000000180e-01,0.000000000000000000e+00,9.503725056000000393e+00
1.691119078595499008e+18,3.654080389768574709e-03,1.218026796589524903e-03,3.897685749086479690e-02,0.000000000000000000e+00,0.000000000000000000e+00,9.503725056000000393e+00
1.691119078605499136e+18,-1.218026796589524903e-03,1.096224116930572499e-02,2.923264311814859767e-02,3.065717760000000180e-01,-1.532858880000000090e-01,9.657010944000001373e+00
1.691119078615499008e+18,2.436053593179049806e-03,1.339829476248477480e-02,2.557856272838002556e-02,1.532858880000000090e-01,-3.065717760000000180e-01,9.503725056000000393e+00
1.691119078625499136e+18,4.872107186358099612e-03,4.872107186358099612e-03,3.410475030450670075e-02,0.000000000000000000e+00,-1.532858880000000090e-01,9.657010944000001373e+00
1.691119078635499008e+18,2.436053593179049806e-03,1.583434835566382287e-02,2.923264311814859767e-02,0.000000000000000000e+00,-1.532858880000000090e-01,9.657010944000001373e+00
1.691119078645498880e+18,8.526187576126675188e-03,1.461632155907429884e-02,2.314250913520097402e-02,1.532858880000000090e-01,-3.065717760000000180e-01,9.503725056000000393e+00
1.691119078655499008e+18,-2.436053593179049806e-03,8.526187576126675188e-03,2.801461632155907364e-02,0.000000000000000000e+00,0.000000000000000000e+00,9.657010944000001373e+00
1.691119078665498880e+18,3.654080389768574709e-03,3.654080389768574709e-03,3.532277710109622132e-02,0.000000000000000000e+00,0.000000000000000000e+00,9.503725056000000393e+00
1.691119078675499008e+18,-3.654080389768574709e-03,1.339829476248477480e-02,3.045066991473812518e-02,3.065717760000000180e-01,-1.532858880000000090e-01,9.503725056000000393e+00
1.691119078685498880e+18,3.654080389768574709e-03,4.872107186358099612e-03,3.045066991473812518e-02,1.532858880000000090e-01,-3.065717760000000180e-01,9.503725056000000393e+00
1.691119078695499008e+18,-3.654080389768574709e-03,1.096224116930572499e-02,3.288672350791717325e-02,3.065717760000000180e-01,-1.532858880000000090e-01,9.503725056000000393e+00
1.691119078705499136e+18,-9.744214372716199224e-03,1.339829476248477480e-02,2.923264311814859767e-02,1.532858880000000090e-01,-1.532858880000000090e-01,9.657010944000001373e+00
1.691119078715499264e+18,0.000000000000000000e+00,3.654080389768574709e-03,2.679658952496954960e-02,1.532858880000000090e-01,-3.065717760000000180e-01,9.503725056000000393e+00
1.691119078725499136e+18,-8.526187576126675188e-03,8.526187576126675188e-03,3.532277710109622132e-02,1.532858880000000090e-01,0.000000000000000000e+00,9.657010944000001373e+00
1.691119078735499264e+18,9.744214372716199224e-03,1.461632155907429884e-02,3.166869671132764574e-02,3.065717760000000180e-01,-3.065717760000000180e-01,9.657010944000001373e+00
1.691119078745499136e+18,-1.218026796589524903e-03,8.526187576126675188e-03,2.923264311814859767e-02,3.065717760000000180e-01,-1.532858880000000090e-01,9.503725056000000393e+00
1.691119078755499008e+18,3.654080389768574709e-03,4.872107186358099612e-03,1.705237515225335038e-02,1.532858880000000090e-01,0.000000000000000000e+00,9.657010944000001373e+00
1.691119078765499136e+18,-9.744214372716199224e-03,1.339829476248477480e-02,3.654080389768574882e-02,3.065717760000000180e-01,-1.532858880000000090e-01,9.657010944000001373e+00
1.691119078775499008e+18,-4.872107186358099612e-03,8.526187576126675188e-03,2.436053593179049806e-02,1.532858880000000090e-01,-1.532858880000000090e-01,9.503725056000000393e+00
1.691119078785499136e+18,4.872107186358099612e-03,9.744214372716199224e-03,3.045066991473812518e-02,6.131435520000000361e-01,-1.532858880000000090e-01,9.657010944000001373e+00
1.691119078795499008e+18,3.654080389768574709e-03,1.339829476248477480e-02,2.801461632155907364e-02,4.598576639999999993e-01,0.000000000000000000e+00,9.503725056000000393e+00
1.691119078805499136e+18,0.000000000000000000e+00,1.096224116930572499e-02,2.679658952496954960e-02,-1.532858880000000090e-01,-1.532858880000000090e-01,9.810296832000000578e+00
1.691119078815499008e+18,3.654080389768574709e-03,9.744214372716199224e-03,3.288672350791717325e-02,4.598576639999999993e-01,-3.065717760000000180e-01,9.503725056000000393e+00
1.691119078825499136e+18,3.654080389768574709e-03,1.705237515225335038e-02,2.801461632155907364e-02,1.532858880000000090e-01,-1.532858880000000090e-01,9.503725056000000393e+00
1.691119078835499008e+18,-7.308160779537149418e-03,9.744214372716199224e-03,2.070645554202192595e-02,1.532858880000000090e-01,-1.532858880000000090e-01,9.503725056000000393e+00
1.691119078845499136e+18,7.308160779537149418e-03,8.526187576126675188e-03,3.654080389768574882e-02,0.000000000000000000e+00,-1.532858880000000090e-01,9.503725056000000393e+00
1.691119078855499008e+18,0.000000000000000000e+00,7.308160779537149418e-03,3.775883069427527633e-02,3.065717760000000180e-01,-3.065717760000000180e-01,9.657010944000001373e+00
1.691119078865499136e+18,0.000000000000000000e+00,6.090133982947624515e-03,3.532277710109622132e-02,0.000000000000000000e+00,-1.532858880000000090e-01,9.657010944000001373e+00
1.691119078875499008e+18,2.436053593179049806e-03,6.090133982947624515e-03,3.166869671132764574e-02,4.598576639999999993e-01,0.000000000000000000e+00,9.503725056000000393e+00
1.691119078885498880e+18,8.526187576126675188e-03,1.096224116930572499e-02,3.775883069427527633e-02,1.532858880000000090e-01,-1.532858880000000090e-01,9.503725056000000393e+00
1.691119078895499008e+18,1.339829476248477480e-02,3.654080389768574709e-03,2.801461632155907364e-02,3.065717760000000180e-01,-1.532858880000000090e-01,9.503725056000000393e+00
1.691119078905498880e+18,-2.436053593179049806e-03,4.872107186358099612e-03,2.557856272838002556e-02,0.000000000000000000e+00,-1.532858880000000090e-01,9.657010944000001373e+00
1.691119078915499008e+18,-8.526187576126675188e-03,1.339829476248477480e-02,3.166869671132764574e-02,1.532858880000000090e-01,-1.532858880000000090e-01,9.503725056000000393e+00
1.691119078925498880e+18,6.090133982947624515e-03,1.218026796589524903e-03,3.410475030450670075e-02,0.000000000000000000e+00,0.000000000000000000e+00,9.503725056000000393e+00
1.691119078935499008e+18,2.436053593179049806e-03,8.526187576126675188e-03,3.045066991473812518e-02,3.065717760000000180e-01,0.000000000000000000e+00,9.503725056000000393e+00
1.691119078945498880e+18,1.218026796589524903e-03,4.872107186358099612e-03,3.775883069427527633e-02,0.000000000000000000e+00,-1.532858880000000090e-01,9.657010944000001373e+00
1.691119078955499264e+18,1.096224116930572499e-02,9.744214372716199224e-03,3.654080389768574882e-02,0.000000000000000000e+00,-3.065717760000000180e-01,9.657010944000001373e+00
1.691119078965499136e+18,3.654080389768574709e-03,1.218026796589524903e-02,2.679658952496954960e-02,1.532858880000000090e-01,-1.532858880000000090e-01,9.503725056000000393e+00
1.691119078975499264e+18,0.000000000000000000e+00,1.583434835566382287e-02,2.801461632155907364e-02,0.000000000000000000e+00,0.000000000000000000e+00,9.350439168000001189e+00
1.691119078985499136e+18,-4.872107186358099612e-03,8.526187576126675188e-03,3.045066991473812518e-02,1.532858880000000090e-01,-1.532858880000000090e-01,9.503725056000000393e+00
1.691119078995499008e+18,-1.096224116930572499e-02,1.339829476248477480e-02,3.532277710109622132e-02,0.000000000000000000e+00,0.000000000000000000e+00,9.503725056000000393e+00
1.691119079005499136e+18,-3.654080389768574709e-03,7.308160779537149418e-03,2.679658952496954960e-02,3.065717760000000180e-01,-1.532858880000000090e-01,9.657010944000001373e+00
1.691119079015499008e+18,-2.436053593179049806e-03,7.308160779537149418e-03,3.288672350791717325e-02,1.532858880000000090e-01,-3.065717760000000180e-01,9.503725056000000393e+00
1.691119079025499136e+18,1.218026796589524903e-03,8.526187576126675188e-03,3.288672350791717325e-02,3.065717760000000180e-01,-1.532858880000000090e-01,9.503725056000000393e+00
1.691119079035499008e+18,6.090133982947624515e-03,1.218026796589524903e-02,3.045066991473812518e-02,-1.532858880000000090e-01,-1.532858880000000090e-01,9.657010944000001373e+00
1.691119079045499136e+18,0.000000000000000000e+00,6.090133982947624515e-03,2.923264311814859767e-02,3.065717760000000180e-01,0.000000000000000000e+00,9.503725056000000393e+00
1.691119079055499008e+18,9.744214372716199224e-03,1.096224116930572499e-02,3.166869671132764574e-02,4.598576639999999993e-01,-1.532858880000000090e-01,9.503725056000000393e+00
1.691119079065499136e+18,2.436053593179049806e-03,7.308160779537149418e-03,3.532277710109622132e-02,1.532858880000000090e-01,-1.532858880000000090e-01,9.657010944000001373e+00
1.691119079075499008e+18,-7.308160779537149418e-03,1.583434835566382287e-02,2.923264311814859767e-02,1.532858880000000090e-01,0.000000000000000000e+00,9.657010944000001373e+00
1.691119079085499136e+18,9.744214372716199224e-03,4.872107186358099612e-03,3.288672350791717325e-02,0.000000000000000000e+00,0.000000000000000000e+00,9.810296832000000578e+00
1.691119079095499008e+18,6.090133982947624515e-03,8.526187576126675188e-03,3.288672350791717325e-02,4.598576639999999993e-01,-1.532858880000000090e-01,9.503725056000000393e+00
1.691119079105499136e+18,7.308160779537149418e-03,1.096224116930572499e-02,3.410475030450670075e-02,0.000000000000000000e+00,0.000000000000000000e+00,9.657010944000001373e+00
1.691119079115499008e+18,6.090133982947624515e-03,4.872107186358099612e-03,3.166869671132764574e-02,1.532858880000000090e-01,-1.532858880000000090e-01,9.657010944000001373e+00
1.691119079125499136e+18,6.090133982947624515e-03,6.090133982947624515e-03,2.801461632155907364e-02,-1.532858880000000090e-01,-1.532858880000000090e-01,9.810296832000000578e+00
1.691119079135499008e+18,2.436053593179049806e-03,6.090133982947624515e-03,3.410475030450670075e-02,-1.532858880000000090e-01,-1.532858880000000090e-01,9.503725056000000393e+00
1.691119079145498880e+18,8.526187576126675188e-03,7.308160779537149418e-03,3.045066991473812518e-02,3.065717760000000180e-01,-1.532858880000000090e-01,9.503725056000000393e+00
1.691119079155499008e+18,4.872107186358099612e-03,6.090133982947624515e-03,2.923264311814859767e-02,3.065717760000000180e-01,-1.532858880000000090e-01,9.503725056000000393e+00
1.691119079165498880e+18,4.872107186358099612e-03,9.744214372716199224e-03,3.166869671132764574e-02,0.000000000000000000e+00,-1.532858880000000090e-01,9.503725056000000393e+00
1.691119079175499008e+18,-1.218026796589524903e-03,4.872107186358099612e-03,4.019488428745432440e-02,3.065717760000000180e-01,-1.532858880000000090e-01,9.350439168000001189e+00
1.691119079185498880e+18,-2.436053593179049806e-03,1.461632155907429884e-02,2.801461632155907364e-02,1.532858880000000090e-01,-1.532858880000000090e-01,9.657010944000001373e+00
1.691119079195499008e+18,-2.436053593179049806e-03,1.218026796589524903e-02,2.679658952496954960e-02,1.532858880000000090e-01,-1.532858880000000090e-01,9.503725056000000393e+00
1.691119079205499136e+18,9.744214372716199224e-03,9.744214372716199224e-03,2.436053593179049806e-02,3.065717760000000180e-01,-3.065717760000000180e-01,9.503725056000000393e+00
1.691119079215499264e+18,1.218026796589524903e-02,-2.436053593179049806e-03,3.288672350791717325e-02,0.000000000000000000e+00,-1.532858880000000090e-01,9.503725056000000393e+00
1.691119079225499136e+18,-2.436053593179049806e-03,8.526187576126675188e-03,3.654080389768574882e-02,1.532858880000000090e-01,-1.532858880000000090e-01,9.503725056000000393e+00
1.691119079235499264e+18,4.872107186358099612e-03,8.526187576126675188e-03,3.166869671132764574e-02,0.000000000000000000e+00,-3.065717760000000180e-01,9.503725056000000393e+00
1.691119079245499136e+18,-3.654080389768574709e-03,9.744214372716199224e-03,3.288672350791717325e-02,1.532858880000000090e-01,-1.532858880000000090e-01,9.503725056000000393e+00
1.691119079255499008e+18,-2.436053593179049806e-03,1.218026796589524903e-03,3.045066991473812518e-02,3.065717760000000180e-01,-1.532858880000000090e-01,9.657010944000001373e+00
1.691119079265499136e+18,4.872107186358099612e-03,2.436053593179049806e-03,3.288672350791717325e-02,1.532858880000000090e-01,-1.532858880000000090e-01,9.503725056000000393e+00
1.691119079275499008e+18,7.308160779537149418e-03,9.744214372716199224e-03,3.166869671132764574e-02,1.532858880000000090e-01,-1.532858880000000090e-01,9.657010944000001373e+00
1.691119079285499136e+18,7.308160779537149418e-03,1.461632155907429884e-02,2.801461632155907364e-02,1.532858880000000090e-01,-3.065717760000000180e-01,9.657010944000001373e+00
1.691119079295499008e+18,4.872107186358099612e-03,1.827040194884287441e-02,3.045066991473812518e-02,1.532858880000000090e-01,-1.532858880000000090e-01,9.503725056000000393e+00
1.691119079305499136e+18,-3.654080389768574709e-03,8.526187576126675188e-03,3.532277710109622132e-02,3.065717760000000180e-01,-1.532858880000000090e-01,9.657010944000001373e+00
1.691119079315499008e+18,-1.218026796589524903e-03,1.461632155907429884e-02,4.019488428745432440e-02,0.000000000000000000e+00,-1.532858880000000090e-01,9.657010944000001373e+00
1.691119079325499136e+18,4.872107186358099612e-03,9.744214372716199224e-03,3.045066991473812518e-02,1.532858880000000090e-01,-3.065717760000000180e-01,9.657010944000001373e+00
1.691119079335499008e+18,1.096224116930572499e-02,1.461632155907429884e-02,3.775883069427527633e-02,1.532858880000000090e-01,-1.532858880000000090e-01,9.503725056000000393e+00
1.691119079345499136e+18,2.436053593179049806e-03,9.744214372716199224e-03,3.288672350791717325e-02,1.532858880000000090e-01,-1.532858880000000090e-01,9.657010944000001373e+00
1.691119079355499008e+18,-9.744214372716199224e-03,6.090133982947624515e-03,3.654080389768574882e-02,1.532858880000000090e-01,-1.532858880000000090e-01,9.657010944000001373e+00
1.691119079365499136e+18,-4.872107186358099612e-03,1.339829476248477480e-02,2.679658952496954960e-02,1.532858880000000090e-01,-3.065717760000000180e-01,9.503725056000000393e+00
1.691119079375499008e+18,-4.872107186358099612e-03,1.339829476248477480e-02,2.679658952496954960e-02,3.065717760000000180e-01,-3.065717760000000180e-01,9.503725056000000393e+00
1.691119079385498880e+18,2.436053593179049806e-03,8.526187576126675188e-03,3.532277710109622132e-02,-1.532858880000000090e-01,-1.532858880000000090e-01,9.503725056000000393e+00
1.691119079395499008e+18,1.218026796589524903e-03,9.744214372716199224e-03,3.166869671132764574e-02,1.532858880000000090e-01,-1.532858880000000090e-01,9.503725056000000393e+00
1.691119079405498880e+18,-2.436053593179049806e-03,3.654080389768574709e-03,3.410475030450670075e-02,1.532858880000000090e-01,-1.532858880000000090e-01,9.350439168000001189e+00
1.691119079415499008e+18,3.654080389768574709e-03,1.339829476248477480e-02,2.923264311814859767e-02,1.532858880000000090e-01,0.000000000000000000e+00,9.657010944000001373e+00
1.691119079425498880e+18,6.090133982947624515e-03,7.308160779537149418e-03,2.923264311814859767e-02,1.532858880000000090e-01,-3.065717760000000180e-01,9.657010944000001373e+00
1.691119079435499008e+18,2.436053593179049806e-03,1.218026796589524903e-02,2.679658952496954960e-02,1.532858880000000090e-01,-1.532858880000000090e-01,9.657010944000001373e+00
1.691119079445498880e+18,-2.436053593179049806e-03,1.218026796589524903e-02,2.923264311814859767e-02,1.532858880000000090e-01,-1.532858880000000090e-01,9.503725056000000393e+00
1.691119079455499264e+18,6.090133982947624515e-03,1.218026796589524903e-02,3.166869671132764574e-02,1.532858880000000090e-01,-1.532858880000000090e-01,9.657010944000001373e+00
1.691119079465499136e+18,3.654080389768574709e-03,8.526187576126675188e-03,3.166869671132764574e-02,1.532858880000000090e-01,-3.065717760000000180e-01,9.503725056000000393e+00
1.691119079475499264e+18,-1.096224116930572499e-02,8.526187576126675188e-03,2.679658952496954960e-02,0.000000000000000000e+00,-1.532858880000000090e-01,9.503725056000000393e+00
1.691119079485499136e+18,0.000000000000000000e+00,1.583434835566382287e-02,3.045066991473812518e-02,4.598576639999999993e-01,-1.532858880000000090e-01,9.657010944000001373e+00
1.691119079495499008e+18,-4.872107186358099612e-03,9.744214372716199224e-03,2.679658952496954960e-02,1.532858880000000090e-01,-1.532858880000000090e-01,9.197153280000000208e+00
1.691119079505499136e+18,6.090133982947624515e-03,1.218026796589524903e-02,3.410475030450670075e-02,0.000000000000000000e+00,-1.532858880000000090e-01,9.503725056000000393e+00
1.691119079515499008e+18,-3.654080389768574709e-03,1.461632155907429884e-02,2.923264311814859767e-02,1.532858880000000090e-01,-1.532858880000000090e-01,9.657010944000001373e+00
1.691119079525499136e+18,-8.526187576126675188e-03,9.744214372716199224e-03,3.166869671132764574e-02,0.000000000000000000e+00,-1.532858880000000090e-01,9.657010944000001373e+00
1.691119079535499008e+18,-3.654080389768574709e-03,4.872107186358099612e-03,2.801461632155907364e-02,0.000000000000000000e+00,-1.532858880000000090e-01,9.657010944000001373e+00
1.691119079545499136e+18,-3.654080389768574709e-03,4.872107186358099612e-03,3.775883069427527633e-02,3.065717760000000180e-01,-3.065717760000000180e-01,9.657010944000001373e+00
1.691119079555499008e+18,0.000000000000000000e+00,7.308160779537149418e-03,3.045066991473812518e-02,0.000000000000000000e+00,0.000000000000000000e+00,9.657010944000001373e+00
1.691119079565499136e+18,-7.308160779537149418e-03,1.339829476248477480e-02,3.410475030450670075e-02,1.532858880000000090e-01,-3.065717760000000180e-01,9.350439168000001189e+00
1.691119079575499008e+18,6.090133982947624515e-03,1.827040194884287441e-02,2.070645554202192595e-02,1.532858880000000090e-01,0.000000000000000000e+00,9.503725056000000393e+00
1.691119079585499136e+18,4.872107186358099612e-03,1.339829476248477480e-02,2.923264311814859767e-02,1.532858880000000090e-01,-1.532858880000000090e-01,9.503725056000000393e+00
1.691119079595499008e+18,3.654080389768574709e-03,1.461632155907429884e-02,2.557856272838002556e-02,1.532858880000000090e-01,-1.532858880000000090e-01,9.657010944000001373e+00
1.691119079605499136e+18,1.218026796589524903e-03,1.583434835566382287e-02,2.314250913520097402e-02,1.532858880000000090e-01,0.000000000000000000e+00,9.503725056000000393e+00
1.691119079615499008e+18,-2.436053593179049806e-03,1.096224116930572499e-02,3.288672350791717325e-02,3.065717760000000180e-01,-1.532858880000000090e-01,9.657010944000001373e+00
1.691119079625499136e+18,4.872107186358099612e-03,1.461632155907429884e-02,3.045066991473812518e-02,1.532858880000000090e-01,-3.065717760000000180e-01,9.503725056000000393e+00
1.691119079635499008e+18,4.872107186358099612e-03,7.308160779537149418e-03,3.410475030450670075e-02,1.532858880000000090e-01,-1.532858880000000090e-01,9.657010944000001373e+00
1.691119079645498880e+18,9.744214372716199224e-03,6.090133982947624515e-03,2.557856272838002556e-02,3.065717760000000180e-01,-1.532858880000000090e-01,9.657010944000001373e+00
1.691119079655499008e+18,-1.218026796589524903e-03,1.339829476248477480e-02,2.801461632155907364e-02,1.532858880000000090e-01,-1.532858880000000090e-01,9.503725056000000393e+00
1.691119079665498880e+18,-4.872107186358099612e-03,6.090133982947624515e-03,4.506699147381242054e-02,0.000000000000000000e+00,-1.532858880000000090e-01,9.657010944000001373e+00
1.691119079675499008e+18,-2.436053593179049806e-03,9.744214372716199224e-03,2.436053593179049806e-02,3.065717760000000180e-01,-1.532858880000000090e-01,9.503725056000000393e+00
1.691119079685498880e+18,-4.872107186358099612e-03,1.218026796589524903e-02,3.045066991473812518e-02,0.000000000000000000e+00,0.000000000000000000e+00,9.657010944000001373e+00
1.691119079695499008e+18,8.526187576126675188e-03,9.744214372716199224e-03,2.679658952496954960e-02,3.065717760000000180e-01,-1.532858880000000090e-01,9.503725056000000393e+00
1.691119079705499136e+18,0.000000000000000000e+00,1.096224116930572499e-02,3.410475030450670075e-02,3.065717760000000180e-01,-3.065717760000000180e-01,9.810296832000000578e+00
1.691119079715499264e+18,0.000000000000000000e+00,7.308160779537149418e-03,3.045066991473812518e-02,1.532858880000000090e-01,-1.532858880000000090e-01,9.657010944000001373e+00
1.691119079725499136e+18,4.872107186358099612e-03,3.654080389768574709e-03,3.288672350791717325e-02,1.532858880000000090e-01,-1.532858880000000090e-01,9.657010944000001373e+00
1.691119079735499264e+18,-2.436053593179049806e-03,1.339829476248477480e-02,2.801461632155907364e-02,0.000000000000000000e+00,-1.532858880000000090e-01,9.657010944000001373e+00
1.691119079745499136e+18,1.218026796589524903e-03,4.872107186358099612e-03,3.045066991473812518e-02,1.532858880000000090e-01,-1.532858880000000090e-01,9.503725056000000393e+00
1.691119079755499008e+18,-4.872107186358099612e-03,1.096224116930572499e-02,3.897685749086479690e-02,1.532858880000000090e-01,-1.532858880000000090e-01,9.657010944000001373e+00
1.691119079765499136e+18,7.308160779537149418e-03,9.744214372716199224e-03,4.384896467722289998e-02,1.532858880000000090e-01,0.000000000000000000e+00,9.503725056000000393e+00
1.691119079775499008e+18,4.872107186358099612e-03,1.705237515225335038e-02,5.115712545676005113e-02,4.598576639999999993e-01,0.000000000000000000e+00,9.503725056000000393e+00
1.691119079785499136e+18,-6.090133982947624515e-03,1.218026796589524903e-02,5.602923264311814727e-02,4.598576639999999993e-01,0.000000000000000000e+00,9.503725056000000393e+00
1.691119079795499008e+18,-1.218026796589524903e-03,1.461632155907429884e-02,6.820950060901340151e-02,7.664294400000000174e-01,1.532858880000000090e-01,9.810296832000000578e+00
1.691119079805499136e+18,-1.218026796589524903e-03,2.070645554202192595e-02,8.647990255785627245e-02,4.598576639999999993e-01,1.532858880000000090e-01,9.657010944000001373e+00
1.691119079815499008e+18,3.654080389768574709e-03,2.557856272838002556e-02,1.084043848964677259e-01,6.131435520000000361e-01,1.532858880000000090e-01,9.503725056000000393e+00
1.691119079825499136e+18,-8.526187576126675188e-03,2.070645554202192595e-02,1.303288672350791655e-01,6.131435520000000361e-01,3.065717760000000180e-01,9.657010944000001373e+00
1.691119079835499008e+18,-1.218026796589524903e-02,2.314250913520097402e-02,1.522533495736906328e-01,6.131435520000000361e-01,4.598576639999999993e-01,9.810296832000000578e+00
1.691119079845499136e+18,-6.090133982947624515e-03,2.923264311814859767e-02,1.887941534713763747e-01,9.197153279999999986e-01,6.131435520000000361e-01,9.350439168000001189e+00
1.691119079855499008e+18,-1.218026796589524903e-03,2.192448233861144999e-02,2.095006090133982868e-01,6.131435520000000361e-01,4.598576639999999993e-01,9.350439168000001189e+00
1.691119079865499136e+18,-1.096224116930572499e-02,1.096224116930572499e-02,2.460414129110840564e-01,9.197153279999999986e-01,4.598576639999999993e-01,9.657010944000001373e+00
1.691119079875499008e+18,0.000000000000000000e+00,2.557856272838002556e-02,2.606577344701583310e-01,9.197153279999999986e-01,6.131435520000000361e-01,9.963582719999999782e+00
1.691119079885498880e+18,6.090133982947624515e-03,3.166869671132764574e-02,2.947624847746650456e-01,6.131435520000000361e-01,4.598576639999999993e-01,9.503725056000000393e+00
1.691119079895499008e+18,-4.872107186358099612e-03,3.288672350791717325e-02,3.154689403166869854e-01,6.131435520000000361e-01,1.532858880000000090e-01,9.503725056000000393e+00
1.691119079905498880e+18,4.872107186358099612e-03,2.192448233861144999e-02,3.410475030450669798e-01,6.131435520000000361e-01,1.532858880000000090e-01,9.657010944000001373e+00
1.691119079915499008e+18,-2.436053593179049806e-03,2.314250913520097402e-02,3.568818514007308096e-01,9.197153279999999986e-01,1.532858880000000090e-01,9.657010944000001373e+00
1.691119079925498880e+18,-1.218026796589524903e-03,2.314250913520097402e-02,3.861144945188794142e-01,7.664294400000000174e-01,0.000000000000000000e+00,9.503725056000000393e+00
1.691119079935499008e+18,-1.339829476248477480e-02,2.314250913520097402e-02,3.946406820950060790e-01,7.664294400000000174e-01,0.000000000000000000e+00,9.657010944000001373e+00
1.691119079945498880e+18,7.308160779537149418e-03,2.314250913520097402e-02,3.995127892813641890e-01,7.664294400000000174e-01,1.532858880000000090e-01,9.810296832000000578e+00
1.691119079955499264e+18,1.218026796589524903e-03,2.557856272838002556e-02,4.202192448233861288e-01,9.197153279999999986e-01,1.532858880000000090e-01,9.657010944000001373e+00
1.691119079965499136e+18,9.744214372716199224e-03,2.923264311814859767e-02,4.348355663824604034e-01,9.197153279999999986e-01,0.000000000000000000e+00,9.657010944000001373e+00
1.691119079975499264e+18,-7.308160779537149418e-03,2.679658952496954960e-02,4.433617539585870682e-01,1.073001215999999980e+00,3.065717760000000180e-01,9.503725056000000393e+00
1.691119079985499136e+18,0.000000000000000000e+00,2.679658952496954960e-02,4.616321559074299530e-01,9.197153279999999986e-01,1.532858880000000090e-01,9.503725056000000393e+00
1.691119079995499008e+18,1.218026796589524903e-03,2.679658952496954960e-02,4.725943970767356728e-01,6.131435520000000361e-01,-1.532858880000000090e-01,9.503725056000000393e+00
1.691119080005499136e+18,6.090133982947624515e-03,2.192448233861144999e-02,4.981729598051157226e-01,4.598576639999999993e-01,1.532858880000000090e-01,9.350439168000001189e+00
1.691119080015499008e+18,6.090133982947624515e-03,1.339829476248477480e-02,5.042630937880633324e-01,4.598576639999999993e-01,0.000000000000000000e+00,9.657010944000001373e+00
1.691119080025499136e+18,0.000000000000000000e+00,9.744214372716199224e-03,5.152253349573691077e-01,3.065717760000000180e-01,0.000000000000000000e+00,9.657010944000001373e+00
1.691119080035499008e+18,1.218026796589524903e-02,8.526187576126675188e-03,5.298416565164433267e-01,4.598576639999999993e-01,0.000000000000000000e+00,9.503725056000000393e+00
1.691119080045499136e+18,3.654080389768574709e-03,1.218026796589524903e-02,5.249695493300852167e-01,3.065717760000000180e-01,-1.532858880000000090e-01,9.350439168000001189e+00
1.691119080055499008e+18,1.096224116930572499e-02,-8.526187576126675188e-03,5.188794153471376625e-01,1.532858880000000090e-01,-6.131435520000000361e-01,9.197153280000000208e+00
1.691119080065499136e+18,1.339829476248477480e-02,-1.339829476248477480e-02,5.042630937880633324e-01,4.598576639999999993e-01,-6.131435520000000361e-01,9.503725056000000393e+00
1.691119080075499008e+18,6.090133982947624515e-03,-1.583434835566382287e-02,4.969549330085261674e-01,0.000000000000000000e+00,-4.598576639999999993e-01,9.503725056000000393e+00
1.691119080085499136e+18,9.744214372716199224e-03,-1.705237515225335038e-02,4.725943970767356728e-01,-1.532858880000000090e-01,-6.131435520000000361e-01,9.503725056000000393e+00
1.691119080095499008e+18,1.218026796589524903e-02,-7.308160779537149418e-03,4.384896467722290136e-01,0.000000000000000000e+00,-7.664294400000000174e-01,9.810296832000000578e+00
1.691119080105499136e+18,8.526187576126675188e-03,-4.263093788063337247e-02,3.824604141291108594e-01,-3.219003648000000162e+00,-1.686144768000000127e+00,9.503725056000000393e+00
1.691119080115499008e+18,1.583434835566382287e-02,-4.872107186358099612e-03,3.215590742996345952e-01,1.992716544000000090e+00,-1.073001215999999980e+00,9.657010944000001373e+00
1.691119080125499136e+18,2.192448233861144999e-02,-2.070645554202192595e-02,2.557856272838002210e-01,-1.379572992000000164e+00,-1.532858880000000035e+00,9.657010944000001373e+00
1.691119080135499008e+18,9.744214372716199224e-03,-2.923264311814859767e-02,2.070645554202192318e-01,-3.372289536000000254e+00,-1.226287104000000072e+00,1.011686860800000076e+01
1.691119080145498880e+18,2.436053593179049806e-02,4.872107186358099612e-03,1.425091352009744128e-01,1.532858880000000035e+00,-7.664294400000000174e-01,9.810296832000000578e+00
1.691119080155499008e+18,1.705237515225335038e-02,3.654080389768574709e-03,7.429963459196102515e-02,4.598576639999999993e-01,-1.073001215999999980e+00,9.503725056000000393e+00
1.691119080165498880e+18,9.744214372716199224e-03,-1.218026796589524903e-03,1.096224116930572499e-02,7.664294400000000174e-01,-1.073001215999999980e+00,9.657010944000001373e+00
1.691119080175499008e+18,6.090133982947624515e-03,1.218026796589524903e-03,-3.410475030450670075e-02,-3.065717760000000180e-01,-4.598576639999999993e-01,9.503725056000000393e+00
1.691119080185498880e+18,6.090133982947624515e-03,-3.654080389768574709e-03,-9.866017052375151974e-02,4.598576639999999993e-01,-3.065717760000000180e-01,9.503725056000000393e+00
1.691119080195499008e+18,-3.654080389768574709e-03,1.583434835566382287e-02,-1.254567600487210832e-01,-1.532858880000000090e-01,-1.532858880000000090e-01,9.503725056000000393e+00
1.691119080205499136e+18,-9.744214372716199224e-03,-2.436053593179049806e-03,-1.412911084043848853e-01,-7.664294400000000174e-01,-4.598576639999999993e-01,9.503725056000000393e+00
1.691119080215499264e+18,-1.583434835566382287e-02,9.744214372716199224e-03,-1.498172959805115778e-01,-9.197153279999999986e-01,-3.065717760000000180e-01,9.657010944000001373e+00
1.691119080225499136e+18,-2.192448233861144999e-02,0.000000000000000000e+00,-1.583434835566382426e-01,-7.664294400000000174e-01,-1.532858880000000090e-01,9.657010944000001373e+00
1.691119080235499264e+18,-1.461632155907429884e-02,-1.218026796589524903e-03,-1.546894031668696601e-01,-4.598576639999999993e-01,0.000000000000000000e+00,9.657010944000001373e+00
1.691119080245499136e+18,-1.096224116930572499e-02,-6.090133982947624515e-03,-1.534713763702801326e-01,-1.226287104000000072e+00,0.000000000000000000e+00,9.350439168000001189e+00
1.691119080255499008e+18,-1.705237515225335038e-02,-1.218026796589524903e-03,-1.461632155907429953e-01,-1.532858880000000035e+00,-1.532858880000000090e-01,9.503725056000000393e+00
1.691119080265499136e+18,-1.461632155907429884e-02,7.308160779537149418e-03,-1.291108404384896380e-01,-4.598576639999999993e-01,-1.532858880000000090e-01,9.503725056000000393e+00
1.691119080275499008e+18,2.436053593179049806e-03,1.218026796589524903e-03,-1.071863580998781984e-01,-7.664294400000000174e-01,1.532858880000000090e-01,9.503725056000000393e+00
1.691119080285499136e+18,2.436053593179049806e-03,0.000000000000000000e+00,-6.699147381242387400e-02,-9.197153279999999986e-01,1.532858880000000090e-01,9.657010944000001373e+00
1.691119080295499008e+18,7.308160779537149418e-03,3.654080389768574709e-03,-3.288672350791717325e-02,-7.664294400000000174e-01,1.532858880000000090e-01,9.503725056000000393e+00
1.691119080305499136e+18,2.436053593179049806e-03,1.339829476248477480e-02,6.090133982947624515e-03,4.598576639999999993e-01,3.065717760000000180e-01,9.657010944000001373e+00
1.691119080315499008e+18,1.096224116930572499e-02,1.948842874543239845e-02,2.436053593179049806e-02,1.532858880000000090e-01,4.598576639999999993e-01,9.810296832000000578e+00
1.691119080325499136e+18,1.461632155907429884e-02,3.166869671132764574e-02,5.724725943970767478e-02,1.532858880000000090e-01,6.131435520000000361e-01,9.657010944000001373e+00
1.691119080335499008e+18,1.218026796589524903e-02,4.506699147381242054e-02,1.023142509135201023e-01,4.598576639999999993e-01,4.598576639999999993e-01,9.810296832000000578e+00
1.691119080345499136e+18,1.096224116930572499e-02,8.526187576126674494e-02,1.498172959805115778e-01,1.226287104000000072e+00,3.065717760000000180e-01,9.810296832000000578e+00
1.691119080355499008e+18,3.654080389768574709e-03,5.724725943970767478e-02,1.753958587088915999e-01,6.131435520000000361e-01,4.598576639999999993e-01,9.810296832000000578e+00
1.691119080365499136e+18,-9.744214372716199224e-03,8.769792935444579995e-02,2.545676004872107212e-01,1.532858880000000035e+00,9.197153279999999986e-01,9.963582719999999782e+00
1.691119080375499008e+18,0.000000000000000000e+00,8.282582216808770381e-02,3.045066991473812656e-01,7.664294400000000174e-01,9.197153279999999986e-01,9.503725056000000393e+00
1.691119080385498880e+18,-6.090133982947624515e-03,1.047503045066991434e-01,3.544457978075517546e-01,1.379572992000000164e+00,7.664294400000000174e-01,9.963582719999999782e+00
1.691119080395499008e+18,-1.705237515225335038e-02,1.023142509135201023e-01,3.848964677222899144e-01,9.197153279999999986e-01,4.598576639999999993e-01,1.011686860800000076e+01
1.691119080405498880e+18,2.436053593179049806e-03,1.023142509135201023e-01,4.190012180267965736e-01,6.131435520000000361e-01,3.065717760000000180e-01,9.503725056000000393e+00
1.691119080415499008e+18,-1.218026796589524903e-02,1.120584652862362945e-01,4.384896467722290136e-01,1.073001215999999980e+00,3.065717760000000180e-01,9.503725056000000393e+00
1.691119080425498880e+18,-1.096224116930572499e-02,1.059683313032886709e-01,4.604141291108404532e-01,6.131435520000000361e-01,-1.532858880000000090e-01,9.350439168000001189e+00
1.691119080435499008e+18,6.090133982947624515e-03,9.013398294762484109e-02,4.665042630937880630e-01,1.226287104000000072e+00,-3.065717760000000180e-01,9.503725056000000393e+00
1.691119080445498880e+18,8.526187576126675188e-03,9.866017052375151974e-02,4.640682095006090080e-01,1.992716544000000090e+00,0.000000000000000000e+00,9.197153280000000208e+00
1.691119080455499264e+18,-6.090133982947624515e-03,3.532277710109622132e-02,4.591961023142508980e-01,6.131435520000000361e-01,-1.532858880000000090e-01,9.350439168000001189e+00
1.691119080465499136e+18,7.308160779537149418e-03,1.948842874543239845e-02,4.543239951278927879e-01,3.065717760000000180e-01,-3.065717760000000180e-01,9.657010944000001373e+00
1.691119080475499264e+18,1.218026796589524903e-03,4.263093788063337247e-02,4.482338611449451782e-01,1.686144768000000127e+00,-4.598576639999999993e-01,9.197153280000000208e+00
1.691119080485499136e+18,-2.436053593179049806e-03,2.923264311814859767e-02,4.445797807551766234e-01,1.532858880000000035e+00,-6.131435520000000361e-01,9.197153280000000208e+00
1.691119080495499008e+18,1.583434835566382287e-02,2.436053593179049806e-03,4.360535931790499586e-01,3.065717760000000180e-01,-1.532858880000000090e-01,9.350439168000001189e+00
1.691119080505499136e+18,8.526187576126675188e-03,-1.218026796589524903e-02,4.287454323995127936e-01,1.379572992000000164e+00,-1.532858880000000090e-01,9.197153280000000208e+00
1.691119080515499008e+18,1.339829476248477480e-02,-9.744214372716199224e-03,4.323995127892813484e-01,1.379572992000000164e+00,1.532858880000000090e-01,9.197153280000000208e+00
1.691119080525499136e+18,-2.436053593179049806e-03,-1.705237515225335038e-02,4.372716199756394584e-01,9.197153279999999986e-01,1.532858880000000090e-01,9.657010944000001373e+00
1.691119080535499008e+18,7.308160779537149418e-03,-1.948842874543239845e-02,4.506699147381242332e-01,7.664294400000000174e-01,0.000000000000000000e+00,9.043867392000001004e+00
1.691119080545499136e+18,3.654080389768574709e-03,-2.192448233861144999e-02,4.677222898903775627e-01,1.379572992000000164e+00,1.532858880000000090e-01,9.197153280000000208e+00
1.691119080555499008e+18,8.526187576126675188e-03,-3.166869671132764574e-02,4.762484774665042830e-01,9.197153279999999986e-01,0.000000000000000000e+00,9.503725056000000393e+00
1.691119080565499136e+18,1.583434835566382287e-02,-3.166869671132764574e-02,4.908647990255785576e-01,7.664294400000000174e-01,0.000000000000000000e+00,9.810296832000000578e+00
1.691119080575499008e+18,1.339829476248477480e-02,-1.948842874543239845e-02,5.042630937880633324e-01,1.992716544000000090e+00,0.000000000000000000e+00,9.350439168000001189e+00
1.691119080585499136e+18,6.090133982947624515e-03,-1.339829476248477480e-02,5.103532277710109977e-01,1.686144768000000127e+00,0.000000000000000000e+00,9.503725056000000393e+00
1.691119080595499008e+18,7.308160779537149418e-03,-1.339829476248477480e-02,5.213154689403166619e-01,1.379572992000000164e+00,0.000000000000000000e+00,9.810296832000000578e+00
1.691119080605499136e+18,1.948842874543239845e-02,-1.096224116930572499e-02,5.298416565164433267e-01,9.197153279999999986e-01,-1.532858880000000090e-01,9.963582719999999782e+00
1.691119080615499008e+18,9.744214372716199224e-03,8.526187576126675188e-03,5.298416565164433267e-01,6.131435520000000361e-01,-1.532858880000000090e-01,9.810296832000000578e+00
1.691119080625499136e+18,8.526187576126675188e-03,2.070645554202192595e-02,5.383678440925699915e-01,1.379572992000000164e+00,-1.532858880000000090e-01,9.810296832000000578e+00
1.691119080635499008e+18,1.218026796589524903e-03,2.679658952496954960e-02,5.383678440925699915e-01,1.532858880000000035e+00,1.532858880000000090e-01,9.810296832000000578e+00
1.691119080645498880e+18,4.872107186358099612e-03,2.923264311814859767e-02,5.310596833130328820e-01,1.226287104000000072e+00,0.000000000000000000e+00,9.657010944000001373e+00
1.691119080655499008e+18,6.090133982947624515e-03,2.679658952496954960e-02,5.334957369062118815e-01,9.197153279999999986e-01,3.065717760000000180e-01,9.810296832000000578e+00
1.691119080665498880e+18,-4.872107186358099612e-03,3.166869671132764574e-02,5.444579780755176568e-01,1.226287104000000072e+00,1.532858880000000090e-01,9.810296832000000578e+00
1.691119080675499008e+18,1.218026796589524903e-03,4.628501827040194805e-02,5.542021924482338768e-01,7.664294400000000174e-01,3.065717760000000180e-01,9.810296832000000578e+00
1.691119080685498880e+18,-6.090133982947624515e-03,6.090133982947625035e-02,5.602923264311814311e-01,7.664294400000000174e-01,3.065717760000000180e-01,9.657010944000001373e+00
1.691119080695499008e+18,-7.308160779537149418e-03,5.846528623629719534e-02,5.736906211936662059e-01,7.664294400000000174e-01,4.598576639999999993e-01,9.503725056000000393e+00
1.691119080705499136e+18,-7.308160779537149418e-03,4.750304506699147555e-02,5.858708891595615365e-01,6.131435520000000361e-01,1.532858880000000090e-01,9.350439168000001189e+00
1.691119080715499264e+18,-1.218026796589524903e-02,4.384896467722289998e-02,5.919610231425090907e-01,6.131435520000000361e-01,1.532858880000000090e-01,9.197153280000000208e+00
1.691119080725499136e+18,0.000000000000000000e+00,3.532277710109622132e-02,5.956151035322777565e-01,9.197153279999999986e-01,1.532858880000000090e-01,9.350439168000001189e+00
1.691119080735499264e+18,1.339829476248477480e-02,2.679658952496954960e-02,6.053593179049938655e-01,9.197153279999999986e-01,0.000000000000000000e+00,9.503725056000000393e+00
1.691119080745499136e+18,-2.436053593179049806e-03,1.218026796589524903e-02,6.138855054811205303e-01,7.664294400000000174e-01,0.000000000000000000e+00,9.503725056000000393e+00
1.691119080755499008e+18,-2.436053593179049806e-03,1.827040194884287441e-02,6.114494518879415308e-01,9.197153279999999986e-01,0.000000000000000000e+00,9.503725056000000393e+00
1.691119080765499136e+18,1.096224116930572499e-02,6.090133982947624515e-03,6.102314250913519755e-01,7.664294400000000174e-01,0.000000000000000000e+00,9.350439168000001189e+00
1.691119080775499008e+18,1.218026796589524903e-03,1.096224116930572499e-02,6.138855054811205303e-01,1.073001215999999980e+00,-1.532858880000000090e-01,9.350439168000001189e+00
1.691119080785499136e+18,1.705237515225335038e-02,4.872107186358099612e-03,6.211936662606577508e-01,9.197153279999999986e-01,-1.532858880000000090e-01,9.350439168000001189e+00
1.691119080795499008e+18,1.705237515225335038e-02,-2.436053593179049806e-03,6.163215590742996408e-01,1.073001215999999980e+00,0.000000000000000000e+00,9.657010944000001373e+00
1.691119080805499136e+18,1.948842874543239845e-02,-4.872107186358099612e-03,6.187576126674786403e-01,7.664294400000000174e-01,0.000000000000000000e+00,9.503725056000000393e+00
1.691119080815499008e+18,4.872107186358099612e-03,-2.436053593179049806e-03,6.236297198538367503e-01,9.197153279999999986e-01,1.532858880000000090e-01,9.503725056000000393e+00
1.691119080825499136e+18,2.557856272838002556e-02,-3.654080389768574709e-03,6.272838002436053051e-01,1.226287104000000072e+00,1.532858880000000090e-01,9.657010944000001373e+00
1.691119080835499008e+18,3.288672350791717325e-02,2.436053593179049806e-03,6.382460414129110804e-01,7.664294400000000174e-01,3.065717760000000180e-01,9.503725056000000393e+00
1.691119080845499136e+18,1.948842874543239845e-02,9.744214372716199224e-03,6.272838002436053051e-01,6.131435520000000361e-01,1.532858880000000090e-01,9.197153280000000208e+00
1.691119080855499008e+18,2.070645554202192595e-02,1.096224116930572499e-02,6.345919610231425256e-01,1.532858880000000035e+00,1.532858880000000090e-01,9.350439168000001189e+00
1.691119080865499136e+18,1.461632155907429884e-02,1.339829476248477480e-02,6.236297198538367503e-01,7.664294400000000174e-01,3.065717760000000180e-01,9.503725056000000393e+00
1.691119080875499008e+18,1.218026796589524903e-02,1.583434835566382287e-02,6.272838002436053051e-01,7.664294400000000174e-01,4.598576639999999993e-01,9.657010944000001373e+00
1.691119080885498880e+18,1.461632155907429884e-02,8.526187576126675188e-03,6.248477466504263056e-01,1.073001215999999980e+00,3.065717760000000180e-01,9.810296832000000578e+00
1.691119080895499008e+18,1.218026796589524903e-03,1.583434835566382287e-02,6.345919610231425256e-01,7.664294400000000174e-01,4.598576639999999993e-01,9.810296832000000578e+00
1.691119080905498880e+18,1.218026796589524903e-03,2.070645554202192595e-02,6.211936662606577508e-01,3.065717760000000180e-01,0.000000000000000000e+00,9.657010944000001373e+00
1.691119080915499008e+18,-2.436053593179049806e-03,1.948842874543239845e-02,6.211936662606577508e-01,7.664294400000000174e-01,0.000000000000000000e+00,9.657010944000001373e+00
1.691119080925498880e+18,-2.436053593179049806e-03,1.339829476248477480e-02,5.931790499390986460e-01,3.065717760000000180e-01,1.532858880000000090e-01,9.810296832000000578e+00
1.691119080935499008e+18,-2.436053593179049806e-03,1.339829476248477480e-02,5.931790499390986460e-01,3.065717760000000180e-01,1.532858880000000090e-01,9.810296832000000578e+00
1.691119080945498880e+18,-1.461632155907429884e-02,2.923264311814859767e-02,5.858708891595615365e-01,3.065717760000000180e-01,0.000000000000000000e+00,9.657010944000001373e+00
1.691119080955499264e+18,-1.218026796589524903e-02,3.775883069427527633e-02,5.724725943970767617e-01,4.598576639999999993e-01,0.000000000000000000e+00,9.503725056000000393e+00
1.691119080965499136e+18,-9.744214372716199224e-03,2.801461632155907364e-02,5.505481120584653221e-01,4.598576639999999993e-01,-3.065717760000000180e-01,8.890581504000000024e+00
1.691119080975499264e+18,-7.308160779537149418e-03,4.872107186358099612e-03,5.261875761266747720e-01,-1.532858880000000090e-01,-4.598576639999999993e-01,9.197153280000000208e+00
1.691119080985499136e+18,-1.218026796589524903e-02,-8.526187576126675188e-03,4.896467722289890578e-01,0.000000000000000000e+00,-1.532858880000000090e-01,9.657010944000001373e+00
1.691119080995499008e+18,6.090133982947624515e-03,-2.436053593179049806e-03,4.774665042630937828e-01,6.131435520000000361e-01,-3.065717760000000180e-01,9.350439168000001189e+00
1.691119081005499136e+18,7.308160779537149418e-03,8.526187576126675188e-03,4.567600487210718430e-01,-1.532858880000000090e-01,-4.598576639999999993e-01,9.503725056000000393e+00
1.691119081015499008e+18,-4.872107186358099612e-03,9.744214372716199224e-03,4.336175395858709036e-01,1.532858880000000090e-01,-3.065717760000000180e-01,9.350439168000001189e+00
1.691119081025499136e+18,3.654080389768574709e-03,1.218026796589524903e-02,4.190012180267965736e-01,1.532858880000000090e-01,-4.598576639999999993e-01,9.963582719999999782e+00
1.691119081035499008e+18,4.872107186358099612e-03,0.000000000000000000e+00,3.982947624847746892e-01,1.532858880000000090e-01,-3.065717760000000180e-01,9.810296832000000578e+00
1.691119081045499136e+18,0.000000000000000000e+00,1.218026796589524903e-03,3.824604141291108594e-01,4.598576639999999993e-01,-1.532858880000000090e-01,9.350439168000001189e+00
1.691119081055499008e+18,3.654080389768574709e-03,-8.526187576126675188e-03,3.593179049939098646e-01,-1.532858880000000090e-01,1.532858880000000090e-01,9.350439168000001189e+00
1.691119081065499136e+18,7.308160779537149418e-03,-1.583434835566382287e-02,3.727161997563946394e-01,1.532858880000000090e-01,0.000000000000000000e+00,9.657010944000001373e+00
1.691119081075499008e+18,8.526187576126675188e-03,2.436053593179049806e-03,3.641900121802679746e-01,1.532858880000000090e-01,0.000000000000000000e+00,9.963582719999999782e+00
1.691119081085499136e+18,4.872107186358099612e-03,1.218026796589524903e-03,3.568818514007308096e-01,4.598576639999999993e-01,1.532858880000000090e-01,9.657010944000001373e+00
1.691119081095499008e+18,-9.744214372716199224e-03,-2.436053593179049806e-03,3.641900121802679746e-01,-1.532858880000000090e-01,3.065717760000000180e-01,9.657010944000001373e+00
1.691119081105499136e+18,-1.218026796589524903e-03,-1.218026796589524903e-03,3.605359317904993643e-01,0.000000000000000000e+00,1.532858880000000090e-01,9.657010944000001373e+00
1.691119081115499008e+18,-1.218026796589524903e-02,7.308160779537149418e-03,3.824604141291108594e-01,-4.598576639999999993e-01,3.065717760000000180e-01,9.963582719999999782e+00
1.691119081125499136e+18,-4.872107186358099612e-03,1.339829476248477480e-02,3.824604141291108594e-01,6.131435520000000361e-01,4.598576639999999993e-01,9.810296832000000578e+00
1.691119081135499008e+18,-1.096224116930572499e-02,1.583434835566382287e-02,3.909866017052375242e-01,1.532858880000000090e-01,1.532858880000000090e-01,9.657010944000001373e+00
1.691119081145498880e+18,-1.339829476248477480e-02,1.583434835566382287e-02,4.031668696711327438e-01,-3.065717760000000180e-01,1.532858880000000090e-01,9.350439168000001189e+00
1.691119081155499008e+18,-2.192448233861144999e-02,1.705237515225335038e-02,4.129110840438489638e-01,-3.065717760000000180e-01,4.598576639999999993e-01,9.503725056000000393e+00
1.691119081165498880e+18,-1.461632155907429884e-02,2.436053593179049806e-02,4.384896467722290136e-01,4.598576639999999993e-01,1.532858880000000090e-01,9.810296832000000578e+00
1.691119081175499008e+18,-8.526187576126675188e-03,3.288672350791717325e-02,4.494518879415347334e-01,-9.197153279999999986e-01,3.065717760000000180e-01,9.350439168000001189e+00
1.691119081185498880e+18,-1.827040194884287441e-02,3.288672350791717325e-02,4.567600487210718430e-01,1.532858880000000090e-01,1.532858880000000090e-01,9.503725056000000393e+00
1.691119081195499008e+18,-7.308160779537149418e-03,2.070645554202192595e-02,4.677222898903775627e-01,6.131435520000000361e-01,0.000000000000000000e+00,9.350439168000001189e+00
1.691119081205499136e+18,2.436053593179049806e-03,1.705237515225335038e-02,4.750304506699147278e-01,-4.598576639999999993e-01,3.065717760000000180e-01,9.197153280000000208e+00
1.691119081215499264e+18,7.308160779537149418e-03,2.801461632155907364e-02,4.933008526187576126e-01,-3.065717760000000180e-01,0.000000000000000000e+00,9.657010944000001373e+00
1.691119081225499136e+18,6.090133982947624515e-03,4.384896467722289998e-02,5.030450669914737771e-01,-1.532858880000000090e-01,1.532858880000000090e-01,9.963582719999999782e+00
1.691119081235499264e+18,9.744214372716199224e-03,3.532277710109622132e-02,5.225334957369062172e-01,-3.065717760000000180e-01,1.532858880000000090e-01,9.810296832000000578e+00
1.691119081245499136e+18,1.461632155907429884e-02,2.557856272838002556e-02,5.079171741778318871e-01,-1.532858880000000090e-01,1.532858880000000090e-01,9.350439168000001189e+00
1.691119081255499008e+18,1.096224116930572499e-02,1.948842874543239845e-02,5.261875761266747720e-01,-1.532858880000000090e-01,1.532858880000000090e-01,9.503725056000000393e+00
1.691119081265499136e+18,1.705237515225335038e-02,2.801461632155907364e-02,5.334957369062118815e-01,-1.532858880000000090e-01,0.000000000000000000e+00,9.657010944000001373e+00
1.691119081275499008e+18,2.192448233861144999e-02,2.679658952496954960e-02,5.359317904993909920e-01,0.000000000000000000e+00,0.000000000000000000e+00,9.043867392000001004e+00
1.691119081285499136e+18,1.218026796589524903e-02,1.705237515225335038e-02,5.383678440925699915e-01,4.598576639999999993e-01,1.532858880000000090e-01,9.350439168000001189e+00
1.691119081295499008e+18,1.096224116930572499e-02,1.461632155907429884e-02,5.347137637028014368e-01,3.065717760000000180e-01,0.000000000000000000e+00,9.657010944000001373e+00
1.691119081305499136e+18,2.192448233861144999e-02,1.339829476248477480e-02,5.371498172959805473e-01,3.065717760000000180e-01,1.532858880000000090e-01,9.963582719999999782e+00
1.691119081315499008e+18,1.096224116930572499e-02,1.948842874543239845e-02,5.383678440925699915e-01,4.598576639999999993e-01,0.000000000000000000e+00,9.657010944000001373e+00
1.691119081325499136e+18,7.308160779537149418e-03,2.679658952496954960e-02,5.115712545676004419e-01,7.664294400000000174e-01,0.000000000000000000e+00,9.350439168000001189e+00
1.691119081335499008e+18,1.096224116930572499e-02,1.339829476248477480e-02,5.103532277710109977e-01,3.065717760000000180e-01,0.000000000000000000e+00,9.197153280000000208e+00
1.691119081345499136e+18,-7.308160779537149418e-03,8.526187576126675188e-03,4.981729598051157226e-01,3.065717760000000180e-01,1.532858880000000090e-01,9.963582719999999782e+00
1.691119081355499008e+18,1.218026796589524903e-03,2.314250913520097402e-02,4.993909866017052224e-01,6.131435520000000361e-01,1.532858880000000090e-01,9.810296832000000578e+00
1.691119081365499136e+18,-4.872107186358099612e-03,1.218026796589524903e-02,4.847746650426309478e-01,1.532858880000000090e-01,1.532858880000000090e-01,9.810296832000000578e+00
1.691119081375499008e+18,-1.339829476248477480e-02,2.801461632155907364e-02,4.823386114494518928e-01,-1.532858880000000090e-01,0.000000000000000000e+00,9.503725056000000393e+00
1.691119081385498880e+18,-1.948842874543239845e-02,3.654080389768574882e-02,4.689403166869671180e-01,9.197153279999999986e-01,-1.532858880000000090e-01,9.197153280000000208e+00
1.691119081395499008e+18,-1.218026796589524903e-03,3.654080389768574882e-02,4.531059683313032882e-01,6.131435520000000361e-01,1.532858880000000090e-01,9.503725056000000393e+00
1.691119081405498880e+18,-1.583434835566382287e-02,2.192448233861144999e-02,4.555420219244823432e-01,3.065717760000000180e-01,-3.065717760000000180e-01,9.503725056000000393e+00
1.691119081415499008e+18,-3.654080389768574709e-03,1.583434835566382287e-02,4.275274056029232383e-01,0.000000000000000000e+00,0.000000000000000000e+00,9.197153280000000208e+00
1.691119081425498880e+18,-2.436053593179049806e-03,-9.744214372716199224e-03,4.397076735688185134e-01,1.532858880000000090e-01,1.532858880000000090e-01,9.197153280000000208e+00
1.691119081435499008e+18,3.654080389768574709e-03,2.436053593179049806e-03,4.275274056029232383e-01,7.664294400000000174e-01,0.000000000000000000e+00,1.011686860800000076e+01
1.691119081445498880e+18,1.948842874543239845e-02,1.339829476248477480e-02,4.226552984165651838e-01,4.598576639999999993e-01,-6.131435520000000361e-01,9.963582719999999782e+00
1.691119081455499264e+18,9.744214372716199224e-03,3.288672350791717325e-02,4.129110840438489638e-01,0.000000000000000000e+00,-1.532858880000000090e-01,9.810296832000000578e+00
1.691119081465499136e+18,2.801461632155907364e-02,2.192448233861144999e-02,4.056029232643117988e-01,4.598576639999999993e-01,0.000000000000000000e+00,9.043867392000001004e+00
1.691119081475499264e+18,1.461632155907429884e-02,-6.090133982947624515e-03,4.031668696711327438e-01,-1.532858880000000090e-01,0.000000000000000000e+00,9.197153280000000208e+00
1.691119081485499136e+18,2.557856272838002556e-02,-4.872107186358099612e-03,4.080389768574908538e-01,-4.598576639999999993e-01,3.065717760000000180e-01,9.503725056000000393e+00
1.691119081495499008e+18,1.583434835566382287e-02,0.000000000000000000e+00,4.177831912302070738e-01,3.065717760000000180e-01,1.532858880000000090e-01,9.810296832000000578e+00
1.691119081505499136e+18,1.827040194884287441e-02,7.308160779537149418e-03,4.214372716199756286e-01,4.598576639999999993e-01,0.000000000000000000e+00,9.043867392000001004e+00
1.691119081515499008e+18,2.192448233861144999e-02,-2.436053593179049806e-03,4.348355663824604034e-01,-7.664294400000000174e-01,1.532858880000000090e-01,9.043867392000001004e+00
1.691119081525499136e+18,2.679658952496954960e-02,-6.090133982947624515e-03,4.384896467722290136e-01,-1.532858880000000090e-01,1.532858880000000090e-01,9.657010944000001373e+00
1.691119081535499008e+18,1.583434835566382287e-02,-3.654080389768574709e-03,4.372716199756394584e-01,0.000000000000000000e+00,3.065717760000000180e-01,1.011686860800000076e+01
1.691119081545499136e+18,1.218026796589524903e-03,8.526187576126675188e-03,4.433617539585870682e-01,-3.065717760000000180e-01,3.065717760000000180e-01,1.011686860800000076e+01
1.691119081555499008e+18,-6.090133982947624515e-03,1.339829476248477480e-02,4.421437271619975684e-01,-3.065717760000000180e-01,1.532858880000000090e-01,9.657010944000001373e+00
1.691119081565499136e+18,-1.339829476248477480e-02,-2.070645554202192595e-02,4.506699147381242332e-01,3.065717760000000180e-01,3.065717760000000180e-01,9.350439168000001189e+00
1.691119081575499008e+18,4.872107186358099612e-03,-3.654080389768574709e-03,4.738124238733252280e-01,1.532858880000000090e-01,1.532858880000000090e-01,9.963582719999999782e+00
1.691119081585499136e+18,-1.705237515225335038e-02,2.923264311814859767e-02,4.640682095006090080e-01,1.532858880000000090e-01,0.000000000000000000e+00,1.011686860800000076e+01
1.691119081595499008e+18,-1.096224116930572499e-02,2.192448233861144999e-02,4.689403166869671180e-01,4.598576639999999993e-01,0.000000000000000000e+00,9.350439168000001189e+00
1.691119081605499136e+18,-1.461632155907429884e-02,1.096224116930572499e-02,4.628501827040195082e-01,1.532858880000000090e-01,0.000000000000000000e+00,9.043867392000001004e+00
1.691119081615499008e+18,1.218026796589524903e-03,0.000000000000000000e+00,4.604141291108404532e-01,-1.532858880000000090e-01,3.065717760000000180e-01,9.963582719999999782e+00
1.691119081625499136e+18,1.218026796589524903e-03,3.532277710109622132e-02,4.628501827040195082e-01,-1.532858880000000090e-01,0.000000000000000000e+00,1.027015449599999997e+01
1.691119081635499008e+18,-4.872107186358099612e-03,3.532277710109622132e-02,4.482338611449451782e-01,6.131435520000000361e-01,0.000000000000000000e+00,9.043867392000001004e+00
1.691119081645498880e+18,-4.872107186358099612e-03,3.654080389768574709e-03,4.543239951278927879e-01,-9.197153279999999986e-01,0.000000000000000000e+00,9.043867392000001004e+00
1.691119081655499008e+18,2.070645554202192595e-02,1.705237515225335038e-02,4.616321559074299530e-01,0.000000000000000000e+00,1.532858880000000090e-01,9.503725056000000393e+00
1.691119081665498880e+18,1.096224116930572499e-02,2.801461632155907364e-02,4.543239951278927879e-01,4.598576639999999993e-01,3.065717760000000180e-01,9.810296832000000578e+00
1.691119081675499008e+18,1.583434835566382287e-02,3.288672350791717325e-02,4.543239951278927879e-01,-4.598576639999999993e-01,0.000000000000000000e+00,1.027015449599999997e+01
1.691119081685498880e+18,6.090133982947624515e-03,1.948842874543239845e-02,4.689403166869671180e-01,-1.532858880000000090e-01,0.000000000000000000e+00,9.503725056000000393e+00
1.691119081695499008e+18,1.339829476248477480e-02,8.526187576126675188e-03,4.591961023142508980e-01,-3.065717760000000180e-01,-1.532858880000000090e-01,9.350439168000001189e+00
1.691119081705499136e+18,1.339829476248477480e-02,8.526187576126675188e-03,4.665042630937880630e-01,-9.197153279999999986e-01,0.000000000000000000e+00,9.810296832000000578e+00
1.691119081715499264e+18,6.090133982947624515e-03,2.557856272838002556e-02,4.591961023142508980e-01,0.000000000000000000e+00,4.598576639999999993e-01,9.503725056000000393e+00
1.691119081725499136e+18,1.096224116930572499e-02,4.872107186358099612e-03,4.750304506699147278e-01,1.532858880000000090e-01,1.532858880000000090e-01,9.197153280000000208e+00
1.691119081735499264e+18,8.526187576126675188e-03,2.070645554202192595e-02,4.811205846528623375e-01,-3.065717760000000180e-01,3.065717760000000180e-01,9.350439168000001189e+00
1.691119081745499136e+18,3.654080389768574709e-03,1.948842874543239845e-02,4.799025578562728378e-01,0.000000000000000000e+00,0.000000000000000000e+00,9.810296832000000578e+00
1.691119081755499008e+18,3.654080389768574709e-03,1.583434835566382287e-02,4.774665042630937828e-01,4.598576639999999993e-01,0.000000000000000000e+00,9.503725056000000393e+00
1.691119081765499136e+18,-7.308160779537149418e-03,-4.872107186358099612e-03,4.774665042630937828e-01,0.000000000000000000e+00,1.532858880000000090e-01,9.657010944000001373e+00
1.691119081775499008e+18,-4.872107186358099612e-03,1.218026796589524903e-02,4.677222898903775627e-01,4.598576639999999993e-01,0.000000000000000000e+00,9.810296832000000578e+00
1.691119081785499136e+18,-8.526187576126675188e-03,2.192448233861144999e-02,4.725943970767356728e-01,1.532858880000000090e-01,1.532858880000000090e-01,9.810296832000000578e+00
1.691119081795499008e+18,-1.218026796589524903e-03,3.166869671132764574e-02,4.762484774665042830e-01,1.532858880000000090e-01,3.065717760000000180e-01,9.503725056000000393e+00
1.691119081805499136e+18,-1.339829476248477480e-02,2.557856272838002556e-02,4.689403166869671180e-01,0.000000000000000000e+00,0.000000000000000000e+00,9.810296832000000578e+00
1.691119081815499008e+18,-7.308160779537149418e-03,2.679658952496954960e-02,4.652862362971985632e-01,4.598576639999999993e-01,1.532858880000000090e-01,9.197153280000000208e+00
1.691119081825499136e+18,-1.705237515225335038e-02,2.801461632155907364e-02,4.640682095006090080e-01,6.131435520000000361e-01,1.532858880000000090e-01,9.810296832000000578e+00
1.691119081835499008e+18,-1.218026796589524903e-02,3.288672350791717325e-02,4.616321559074299530e-01,0.000000000000000000e+00,0.000000000000000000e+00,9.657010944000001373e+00
1.691119081845499136e+18,4.872107186358099612e-03,2.314250913520097402e-02,4.604141291108404532e-01,1.532858880000000090e-01,0.000000000000000000e+00,9.197153280000000208e+00
1.691119081855499008e+18,-6.090133982947624515e-03,6.090133982947624515e-03,4.579780755176613982e-01,4.598576639999999993e-01,1.532858880000000090e-01,9.503725056000000393e+00
1.691119081865499136e+18,2.436053593179049806e-03,9.744214372716199224e-03,4.567600487210718430e-01,-1.532858880000000090e-01,0.000000000000000000e+00,9.657010944000001373e+00
