timestamp, angular_velocity_x, angular_velocity_y, angular_velocity_z, linear_acceleration_x, linear_acceleration_y, linear_acceleration_z
1520621014560423941, -0.1384843766841204, -0.02822950755483993, 0.06471481448892549, -1.081351318359375, -0.24069946289062502, 10.541678466796876
1520621014565439941, -0.1528654465705483, -0.016245282649483356, 0.06711165946999681, -1.1112890625, -0.298179931640625, 10.498568115234375
1520621014570455941, -0.16511598758491278, -0.007456851052221868, 0.07243798165015529, -1.0837463378906251, -0.350870361328125, 10.388397216796875
1520621014575471941, -0.17363810307316635, 0.001864212763055467, 0.0737695621951949, -1.131646728515625, -0.39278320312500004, 10.3512744140625
1520621014580487941, -0.1810949541253882, 0.010918960469324878, 0.0759000910672583, -1.213077392578125, -0.42272094726562504, 10.388397216796875
1520621014585501941, -0.18828548906860215, 0.015446334322459582, 0.07856325215733753, -1.2310400390625, -0.44188110351562504, 10.368039550781251
1520621014590516941, -0.1920139145947131, 0.019707392066586366, 0.07430219441321075, -1.2801379394531252, -0.508941650390625, 10.42552001953125
1520621014595534941, -0.19281286292173686, 0.025832662573768612, 0.07084008499610774, -1.294508056640625, -0.561632080078125, 10.44947021484375
1520621014600547941, -0.19734023677487156, 0.030892668644919165, 0.06498113059793342, -1.325643310546875, -0.585582275390625, 10.466235351562501
1520621014605563941, -0.19680760455685573, 0.03302319751698256, 0.06178533728983833, -1.313668212890625, -0.57240966796875, 10.499765625
1520621014610580941, -0.19414444346677648, 0.037017939152101415, 0.05858954398174324, -1.368753662109375, -0.590372314453125, 10.534493408203126
1520621014615595941, -0.19387812735776855, 0.0402137324601965, 0.05406217012860854, -1.38192626953125, -0.6059399414062501, 10.503358154296876
1520621014620611941, -0.19121496626768933, 0.04154531300523612, 0.049002164057457984, -1.380728759765625, -0.61552001953125, 10.540480957031251
1520621014625626941, -0.18695390852356253, 0.037017939152101415, 0.048203215730434214, -1.308878173828125, -0.599952392578125, 10.54527099609375
1520621014630643941, -0.17923074136233275, 0.03408846195301425, 0.04873584794845006, -1.313668212890625, -0.5843847656250001, 10.508148193359375
1520621014635657941, -0.16911072922003165, 0.03249056529896671, 0.045540054640354974, -1.330433349609375, -0.5316943359375, 10.399174804687501
1520621014640673941, -0.1600559815137622, 0.03195793308095086, 0.044741106313331204, -1.3184582519531252, -0.48978149414062505, 10.406359863281251
1520621014645688941, -0.14780544049939773, 0.030360036426903318, 0.04420847409531536, -1.332828369140625, -0.5029541015625, 10.368039550781251
1520621014650703941, -0.1374191122480887, 0.030892668644919165, 0.04154531300523612, -1.32205078125, -0.525706787109375, 10.40396484375
1520621014655720941, -0.12383699068868459, 0.029561088099879545, 0.03941478413317273, -1.332828369140625, -0.536484375, 10.352471923828125
1520621014660735941, -0.11238539800134385, 0.02689792700980031, 0.03648530693408557, -1.308878173828125, -0.5221142578125, 10.3416943359375
1520621014665750941, -0.09773801200590805, 0.02077265650261806, 0.03408846195301425, -1.25259521484375, -0.511336669921875, 10.28181884765625
1520621014670765941, -0.08468852266451977, 0.012783173232380344, 0.03142530086293501, -1.249002685546875, -0.5412744140625, 10.278226318359376
1520621014675782941, -0.06897587223305228, 0.007723167161229791, 0.03062635253591124, -1.1927197265625, -0.5460644531250001, 10.241103515625001
1520621014680798941, -0.05379585401960062, 0.0005326322180158477, 0.02716424311880823, -1.140029296875, -0.5760021972656251, 10.194400634765625
1520621014685813941, -0.035153726389045944, -0.0055926382891664005, 0.027430559227816155, -1.174757080078125, -0.568817138671875, 10.183623046875
1520621014690829941, -0.01997370817559429, -0.008788431597261486, 0.03142530086293501, -1.1603869628906252, -0.571212158203125, 10.189610595703126
1520621014695843941, -0.0007989483270237715, -0.01038632825130903, 0.03142530086293501, -1.146016845703125, -0.585582275390625, 10.120155029296875
1520621014700859941, 0.020240024284602212, -0.011185276578332801, 0.03382214584400633, -1.1436218261718751, -0.5736071777343751, 10.10937744140625
1520621014705875941, 0.03834951969714103, -0.012516857123372421, 0.036218990825077645, -1.150806884765625, -0.571212158203125, 10.089019775390625
1520621014710890941, 0.05779059565471947, -0.01597896654047543, 0.037017939152101415, -1.1651770019531251, -0.53887939453125, 10.100994873046876
1520621014715907941, 0.07776430383031376, -0.015446334322459582, 0.0391484680241648, -1.2202624511718752, -0.54366943359375, 10.1405126953125
1520621014720923941, 0.09534116702483673, -0.016245282649483356, 0.03834951969714103, -1.2166699218750001, -0.5412744140625, 10.122550048828126
1520621014725937941, 0.1139832946553914, -0.01464738599543581, 0.042077945223251964, -1.2286450195312502, -0.52929931640625, 10.1548828125
1520621014730952941, 0.12996226119586685, -0.011185276578332801, 0.04287689355027574, -1.244212646484375, -0.52929931640625, 10.18601806640625
1520621014735968941, 0.14381069886427889, -0.006125270507182248, 0.04287689355027574, -1.2286450195312502, -0.532891845703125, 10.193203125
1520621014740984941, 0.1563275559876513, -0.00026631610900792384, 0.04261057744126781, -1.2418176269531251, -0.5604345703125, 10.25068359375
1520621014745999941, 0.16937704532903955, 0.007723167161229791, 0.04181162911424404, -1.29091552734375, -0.5484594726562501, 10.299781494140625
1520621014751014941, 0.17603494805423767, 0.012250541014364496, 0.03941478413317273, -1.274150390625, -0.5604345703125, 10.345286865234376
1520621014756030941, 0.18402443132447538, 0.016245282649483356, 0.03994741635118858, -1.2022998046875, -0.5652246093750001, 10.360854492187501
1520621014761046941, 0.19334549513975272, 0.018109495412538822, 0.043143209659283664, -1.217867431640625, -0.5460644531250001, 10.368039550781251
1520621014766062941, 0.19707392066586363, 0.01464738599543581, 0.048203215730434214, -1.244212646484375, -0.5700146484375, 10.399174804687501
1520621014771076941, 0.2000033978649508, 0.011984224905356573, 0.05113269292952138, -1.24541015625, -0.5652246093750001, 10.43031005859375
1520621014776092941, 0.2010686623009825, 0.006391586616190172, 0.05193164125654515, -1.2633728027343751, -0.58198974609375, 10.44947021484375
1520621014781107941, 0.2000033978649508, -0.0007989483270237715, 0.05459480234662439, -1.268162841796875, -0.5652246093750001, 10.462642822265625
1520621014786123941, 0.2000033978649508, -0.006391586616190172, 0.06205165339884625, -1.347198486328125, -0.54366943359375, 10.4566552734375
1520621014791139941, 0.20266655895503005, -0.01038632825130903, 0.06311691783487795, -1.3831237792968751, -0.55324951171875, 10.469827880859375
1520621014796155941, 0.20293287506403795, -0.013582121559404116, 0.06418218227090965, -1.3962963867187501, -0.5748046875, 10.427915039062501
1520621014801169941, 0.20026971397395874, -0.014114753777419964, 0.06551376281594927, -1.3998889160156252, -0.5760021972656251, 10.451865234375001
1520621014806186941, 0.20053603008296664, -0.01384843766841204, 0.06418218227090965, -1.4034814453125, -0.571212158203125, 10.466235351562501
1520621014811201941, 0.2000033978649508, -0.009054747706269411, 0.06285060172587002, -1.4298266601562502, -0.571212158203125, 10.5045556640625
1520621014816217941, 0.19600865622983193, -0.006391586616190172, 0.06178533728983833, -1.3998889160156252, -0.55803955078125, 10.518925781250001
1520621014821233941, 0.1920139145947131, -0.005858954398174325, 0.061519021180830406, -1.4250366210937502, -0.5161267089843751, 10.553653564453125
1520621014826247941, 0.18828548906860215, -0.006391586616190172, 0.05912217619975909, -1.37234619140625, -0.5352868652343751, 10.589578857421875
1520621014831263941, 0.17816547692630105, -0.009853696033293183, 0.05938849230876701, -1.308878173828125, -0.508941650390625, 10.59796142578125
1520621014836279941, 0.1744370514001901, -0.015180018213451659, 0.05938849230876701, -1.265767822265625, -0.475411376953125, 10.643466796875
1520621014841295941, 0.16777914867499202, -0.023169501483689375, 0.05992112452678287, -1.275347900390625, -0.46223876953125004, 10.67939208984375
1520621014846311941, 0.15792545264169883, -0.03142530086293501, 0.05779059565471947, -1.229842529296875, -0.43828857421875, 10.680589599609375
1520621014851325941, 0.1472728082813819, -0.04154531300523612, 0.05938849230876701, -1.2549902343750001, -0.427510986328125, 10.61712158203125
1520621014856341941, 0.14274543442824716, -0.045540054640354974, 0.058855860090751166, -1.217867431640625, -0.408350830078125, 10.5380859375
1520621014861357941, 0.13662016392106494, -0.04953479627547384, 0.05832322787273532, -1.179547119140625, -0.417930908203125, 10.517728271484376
1520621014866373941, 0.13129384174090644, -0.051665325147537224, 0.06045375674479871, -1.110091552734375, -0.398770751953125, 10.450667724609376
1520621014871387941, 0.1251685712337242, -0.05193164125654515, 0.06285060172587002, -1.1053015136718751, -0.367635498046875, 10.43031005859375
1520621014876403941, 0.12223909403463704, -0.050866376820513454, 0.06444849837991756, -1.13763427734375, -0.317340087890625, 10.386002197265626
1520621014881418941, 0.11930961683554989, -0.050866376820513454, 0.06471481448892549, -1.09452392578125, -0.28979736328125, 10.4183349609375
1520621014886435941, 0.1139832946553914, -0.0468716351853946, 0.06498113059793342, -1.0681787109375, -0.28979736328125, 10.405162353515626
1520621014891449941, 0.11371697854638348, -0.04154531300523612, 0.061519021180830406, -1.0873388671875, -0.307760009765625, 10.283016357421875
1520621014896465941, 0.11424961076439932, -0.035153726389045944, 0.055926382891664, -1.112486572265625, -0.3065625, 10.266251220703126
1520621014901480941, 0.11132013356531216, -0.023968449810713145, 0.05113269292952138, -1.1543994140625, -0.28021728515625, 10.237510986328125
1520621014906497941, 0.108390656366225, -0.008522115488253563, 0.043143209659283664, -1.13763427734375, -0.286204833984375, 10.233918457031251
1520621014911513941, 0.10626012749416161, 0.004793689962142629, 0.03568635860706179, -1.101708984375, -0.281414794921875, 10.232720947265625
1520621014916528941, 0.10333065029507445, 0.021571604829641832, 0.027963191445832, -1.0969189453125001, -0.25387207031250003, 10.1979931640625
1520621014921544941, 0.09667274756987636, 0.03834951969714103, 0.019707392066586366, -1.098116455078125, -0.25626708984375, 10.199190673828125
1520621014926559941, 0.0916127414987258, 0.051665325147537224, 0.014913702104443736, -1.1005114746093752, -0.26345214843750003, 10.249486083984376
1520621014931574941, 0.08202536157444054, 0.05965480841777494, 0.011451592687340724, -1.035845947265625, -0.27063720703125, 10.29618896484375
1520621014936590941, 0.07350324608618698, 0.06684534336098888, 0.009587379924285258, -0.968785400390625, -0.298179931640625, 10.3512744140625
1520621014941606941, 0.06338323394388587, 0.07084008499610774, 0.008788431597261486, -0.948427734375, -0.28979736328125, 10.397977294921876
1520621014946621941, 0.0513990090385293, 0.07803061993932169, 0.007456851052221868, -0.9436376953125001, -0.2682421875, 10.374027099609375
1520621014951636941, 0.03888215191515688, 0.08522115488253562, 0.009587379924285258, -0.9412426757812501, -0.29937744140625, 10.4087548828125
1520621014956652941, 0.02476739813773692, 0.09321063815277335, 0.012250541014364496, -0.95561279296875, -0.310155029296875, 10.424322509765625
1520621014961667941, 0.01171790879634865, 0.10013485698697937, 0.015446334322459582, -0.868194580078125, -0.32332763671875003, 10.474617919921876
1520621014966683941, -0.005060006071150553, 0.10253170196805068, 0.023702133701705222, -0.81670166015625, -0.30296997070312504, 10.518925781250001
1520621014971700941, -0.019707392066586366, 0.10173275364102691, 0.03382214584400633, -0.805924072265625, -0.3209326171875, 10.496173095703126
1520621014976715941, -0.03568635860706179, 0.09933590865995559, 0.043143209659283664, -0.81670166015625, -0.28500732421875, 10.5141357421875
1520621014981729941, -0.048203215730434214, 0.09454221869781296, 0.05219795736555307, -0.87418212890625, -0.27063720703125, 10.508148193359375
1520621014986746941, -0.062317969507854176, 0.0916127414987258, 0.06045375674479871, -0.863404541015625, -0.28380981445312503, 10.522518310546875
1520621014991761941, -0.07563377495825037, 0.08974852873567034, 0.0681769239060285, -0.89813232421875, -0.29338989257812503, 10.571616210937501
1520621014996777941, -0.08948221262666241, 0.08894958040864656, 0.07483482663122659, -0.9544152832031251, -0.28500732421875, 10.546468505859375
1520621015001791941, -0.09880327644193974, 0.08708536764559109, 0.08229167768344847, -0.9723779296875, -0.27422973632812503, 10.480605468750001
1520621015006807941, -0.10865697247523293, 0.08548747099154355, 0.08868326429963864, -1.0011181640625, -0.269439697265625, 10.5141357421875
1520621015011823941, -0.11664645574547064, 0.08362325822848808, 0.09560748313384466, -0.9795629882812501, -0.22752685546875, 10.510543212890626
1520621015016839941, -0.12010856516257365, 0.08122641324741676, 0.10253170196805068, -0.9651928710937501, -0.247884521484375, 10.44947021484375
1520621015021855941, -0.12436962290670044, 0.08229167768344847, 0.1105211852382884, -1.0106982421875002, -0.22153930664062502, 10.436297607421876
1520621015026869941, -0.12703278399677967, 0.08415589044650393, 0.11771172018150233, -1.028660888671875, -0.255069580078125, 10.407557373046876
1520621015031885941, -0.12996226119586685, 0.08335694211948017, 0.1227717262526529, -1.057401123046875, -0.30416748046875003, 10.400372314453126
1520621015036901941, -0.1283643645418193, 0.0814927293564247, 0.12596751956074798, -1.0154882812500001, -0.316142578125, 10.400372314453126
1520621015041917941, -0.1283643645418193, 0.07749798772130584, 0.13262542228594607, -1.016685791015625, -0.25267456054687504, 10.36564453125
1520621015046932941, -0.12676646788777174, 0.06791060779702057, 0.14274543442824716, -1.0753637695312501, -0.22513183593750002, 10.40156982421875
1520621015051946941, -0.11771172018150233, 0.06178533728983833, 0.15339807878856412, -1.074166259765625, -0.24668701171875002, 10.4183349609375
1520621015056963941, -0.10972223691126462, 0.05486111845563231, 0.16591493591193654, -1.1088940429687502, -0.29338989257812503, 10.47821044921875
1520621015061979941, -0.10412959862209822, 0.05219795736555307, 0.17257283863713466, -1.1735595703125001, -0.33171020507812504, 10.44947021484375
1520621015066995941, -0.09427590258880504, 0.05432848623761646, 0.17363810307316635, -1.2645703125, -0.3592529296875, 10.426717529296875
1520621015072009941, -0.08788431597261487, 0.05672533121868778, 0.1765675802722535, -1.304088134765625, -0.43349853515625003, 10.391989746093751
1520621015077025941, -0.08229167768344847, 0.06311691783487795, 0.1773665285992773, -1.4046789550781251, -0.530496826171875, 10.311756591796875
1520621015082040941, -0.0692421883420602, 0.07403587830420283, 0.17337178696415842, -1.4609619140625, -0.585582275390625, 10.292596435546875
1520621015087055941, -0.05858954398174324, 0.08761799986360694, 0.16618125202094447, -1.5244299316406251, -0.6514453125, 10.218350830078126
1520621015092072941, -0.04793689962142629, 0.10359696640408238, 0.1584580848597147, -1.51365234375, -0.748443603515625, 10.215955810546875
1520621015097088941, -0.03728425526110934, 0.111852765783328, 0.15339807878856412, -1.478924560546875, -0.7723937988281251, 10.232720947265625
1520621015102102941, -0.02689792700980031, 0.11744540407249442, 0.14940333715344528, -1.4513818359375001, -0.7723937988281251, 10.2075732421875
1520621015107119941, -0.015446334322459582, 0.11771172018150233, 0.1464738599543581, -1.433419189453125, -0.779578857421875, 10.28900390625
1520621015112133941, -0.006125270507182248, 0.1161138235274548, 0.14460964719130265, -1.407073974609375, -0.762813720703125, 10.29618896484375
1520621015117150941, 0.009321063815277334, 0.11424961076439932, 0.1419464861012234, -1.423839111328125, -0.784368896484375, 10.283016357421875
1520621015122165941, 0.018109495412538822, 0.11584750741844686, 0.13688648003007287, -1.47533203125, -0.7771838378906251, 10.297386474609375
1520621015127181941, 0.02929477199087162, 0.11691277185447857, 0.1283643645418193, -1.5447875976562502, -0.784368896484375, 10.26265869140625
1520621015132196941, 0.04261057744126781, 0.11664645574547064, 0.11824435239951818, -1.5232324218750002, -0.7963439941406251, 10.34408935546875
1520621015137212941, 0.05326322180158477, 0.11824435239951818, 0.10626012749416161, -1.538800048828125, -0.808319091796875, 10.357261962890625
1520621015142228941, 0.06205165339884625, 0.12010856516257365, 0.0937432703707892, -1.586700439453125, -0.83586181640625, 10.37282958984375
1520621015147243941, 0.0692421883420602, 0.12170646181662119, 0.0814927293564247, -1.6429833984375002, -0.8538244628906251, 10.371632080078125
1520621015152257941, 0.0782969360483296, 0.11984224905356573, 0.07030745277809189, -1.6741186523437501, -0.8945397949218751, 10.34408935546875
1520621015157274941, 0.08335694211948017, 0.1150485590914231, 0.05858954398174324, -1.651365966796875, -0.9148974609375, 10.37282958984375
1520621015162290941, 0.08974852873567034, 0.10626012749416161, 0.04980111238448176, -1.658551025390625, -0.8957373046875, 10.431507568359375
1520621015167306941, 0.09587379924285258, 0.09427590258880504, 0.04181162911424404, -1.689686279296875, -0.8406518554687501, 10.462642822265625
1520621015172321941, 0.10173275364102691, 0.08442220655551186, 0.03382214584400633, -1.7004638671875, -0.814306640625, 10.441087646484375
1520621015177336941, 0.10652644360316954, 0.07616640717626622, 0.024501082028728992, -1.72201904296875, -0.8071215820312501, 10.441087646484375
1520621015182351941, 0.11371697854638348, 0.06764429168801266, 0.01651159875849128, -1.7579443359375, -0.756826171875, 10.436297607421876
1520621015187368941, 0.1195759329445578, 0.055926382891664, 0.00692421883420602, -1.7040563964843751, -0.769998779296875, 10.479407958984375
1520621015192383941, 0.12650015177876384, 0.04527373853134705, -0.003728425526110934, -1.723216552734375, -0.7580236816406251, 10.496173095703126
1520621015197399941, 0.13209279006793023, 0.037017939152101415, -0.015180018213451659, -1.6944763183593752, -0.756826171875, 10.512938232421876
1520621015202413941, 0.13582121559404114, 0.025033714246744842, -0.023702133701705222, -1.6621435546875, -0.7640112304687501, 10.562036132812501
1520621015207429941, 0.1419464861012234, 0.011984224905356573, -0.031691616971942935, -1.5843054199218751, -0.7532336425781251, 10.599158935546875
1520621015212445941, 0.14620754384535017, -0.001331580545039619, -0.03994741635118858, -1.505269775390625, -0.6981481933593751, 10.654244384765626
1520621015217460941, 0.13875069279312832, -0.02210423704765768, -0.04527373853134705, -1.419049072265625, -0.63947021484375, 10.759625244140626
1520621015222477941, 0.13369068672197776, -0.04367584187729951, -0.04633900296737875, -1.332828369140625, -0.63228515625, 10.824290771484376
1520621015227491941, 0.12676646788777174, -0.07163903332313151, -0.0468716351853946, -1.275347900390625, -0.60114990234375, 10.826685791015626
1520621015232506941, 0.11797803629051026, -0.09693906367888427, -0.049002164057457984, -1.26217529296875, -0.6167175292968751, 10.745255126953126
1520621015237523941, 0.11451592687340725, -0.11930961683554989, -0.051665325147537224, -1.2585827636718752, -0.59396484375, 10.615924072265626
1520621015242538941, 0.11345066243737556, -0.13875069279312832, -0.05832322787273532, -1.222657470703125, -0.583187255859375, 10.55964111328125
1520621015247553941, 0.11424961076439932, -0.15606123987864337, -0.06418218227090965, -1.1903247070312502, -0.56282958984375, 10.563233642578126
1520621015252568941, 0.11851066850852611, -0.17177389031011087, -0.06870955612404435, -1.1436218261718751, -0.50055908203125, 10.510543212890626
1520621015257585941, 0.1262338356697559, -0.18162758634340406, -0.07190534943213944, -1.08494384765625, -0.49337402343750003, 10.473420410156251
1520621015262601941, 0.1318264739589223, -0.19121496626768933, -0.07163903332313151, -1.055006103515625, -0.45026367187500005, 10.4614453125
1520621015267617941, 0.13875069279312832, -0.19734023677487156, -0.07403587830420283, -1.0346484375, -0.446671142578125, 10.480605468750001
1520621015272632941, 0.14567491162733434, -0.20293287506403795, -0.07989483270237716, -1.00830322265625, -0.44068359375000005, 10.479407958984375
1520621015277647941, 0.15446334322459582, -0.2090581455712202, -0.0782969360483296, -1.01309326171875, -0.384400634765625, 10.42552001953125
1520621015282662941, 0.1629854587128494, -0.20932446168022814, -0.07696535550328999, -1.086141357421875, -0.34727783203125, 10.390792236328126
1520621015287678941, 0.17150757420110296, -0.21092235833427567, -0.07297061386817114, -1.0777587890625, -0.38080810546875005, 10.32492919921875
1520621015292694941, 0.18242653467042783, -0.20825919724419645, -0.06711165946999681, -1.1735595703125001, -0.45146118164062504, 10.335706787109375
1520621015297709941, 0.19041601794066554, -0.20240024284602212, -0.06684534336098888, -1.21906494140625, -0.469423828125, 10.369237060546876
1520621015302724941, 0.19574234012082403, -0.19334549513975272, -0.06870955612404435, -1.2034973144531251, -0.49217651367187504, 10.397977294921876
1520621015307740941, 0.20133497840999043, -0.1866875924145546, -0.07004113666908397, -1.205892333984375, -0.501756591796875, 10.405162353515626
1520621015312755941, 0.20586235226312513, -0.1821602185614199, -0.07004113666908397, -1.14242431640625, -0.484991455078125, 10.41593994140625
1520621015317771941, 0.20985709389824397, -0.17496968361820597, -0.07323692997717905, -1.12805419921875, -0.4454736328125, 10.429112548828126
1520621015322786941, 0.2146507838603866, -0.16777914867499202, -0.0782969360483296, -1.05620361328125, -0.39038818359375, 10.429112548828126
1520621015327803941, 0.21704762884145792, -0.16405072314888108, -0.08309062601047223, -0.99393310546875, -0.370030517578125, 10.448272705078125
1520621015332817941, 0.21837920938649755, -0.16032229762277014, -0.08548747099154355, -0.9460327148437501, -0.367635498046875, 10.46384033203125
1520621015337833941, 0.21704762884145792, -0.1531317626795562, -0.08681905153658317, -0.882564697265625, -0.33171020507812504, 10.427915039062501
1520621015342849941, 0.2178465771684817, -0.14460964719130265, -0.09028116095368618, -0.8562194824218751, -0.32213012695312504, 10.42552001953125
1520621015347864941, 0.21385183553336284, -0.13342437061296986, -0.09241168982574957, -0.8155041503906251, -0.326920166015625, 10.395582275390625
1520621015352879941, 0.20932446168022814, -0.12650015177876384, -0.09614011535186051, -0.8346643066406251, -0.37601806640625, 10.362052001953126
1520621015357896941, 0.20293287506403795, -0.1161138235274548, -0.09800432811491597, -0.947230224609375, -0.40954833984375, 10.353669433593751
1520621015362912941, 0.19467707568479234, -0.10652644360316954, -0.10146643753201898, -1.026265869140625, -0.4742138671875, 10.3800146484375
1520621015367927941, 0.1821602185614199, -0.09667274756987636, -0.10812434025721708, -1.114881591796875, -0.536484375, 10.378817138671875
1520621015372942941, 0.1699096775470554, -0.08362325822848808, -0.11531487520043102, -1.2202624511718752, -0.6035449218750001, 10.38240966796875
1520621015377958941, 0.15393071100657998, -0.06737797557900473, -0.12703278399677967, -1.34360595703125, -0.6682104492187501, 10.378817138671875
1520621015382973941, 0.13369068672197776, -0.05406217012860854, -0.14008227333816795, -1.4298266601562502, -0.7137158203125, 10.512938232421876
1520621015387990941, 0.11158644967432009, -0.0402137324601965, -0.1552622915516196, -1.462159423828125, -0.70174072265625, 10.615924072265626
1520621015393004941, 0.08815063208162278, -0.03488741028003802, -0.17337178696415842, -1.4849121093750002, -0.69216064453125, 10.692564697265626
1520621015398021941, 0.06418218227090965, -0.0346210941710301, -0.1856223279785229, -1.46335693359375, -0.647852783203125, 10.74884765625
1520621015403035941, 0.038615835806148954, -0.03808320358813311, -0.20080234619197457, -1.4322216796875, -0.621507568359375, 10.806328125
1520621015408052941, 0.01944107595757844, -0.04500742242233913, -0.21065604222526776, -1.3867163085937502, -0.566422119140625, 10.8590185546875
1520621015413067941, -0.001331580545039619, -0.05406217012860854, -0.2189118416045134, -1.36276611328125, -0.46223876953125004, 10.906918945312501
1520621015418083941, -0.021305288720633905, -0.06418218227090965, -0.2255697443297115, -1.320853271484375, -0.408350830078125, 10.953621826171876
1520621015423098941, -0.04101268078722027, -0.07403587830420283, -0.22983080207383827, -1.274150390625, -0.314945068359375, 10.90931396484375
1520621015428113941, -0.05539375067364816, -0.08229167768344847, -0.2300971181828462, -1.2202624511718752, -0.23111938476562502, 10.88057373046875
1520621015433128941, -0.07137271721412358, -0.08468852266451977, -0.22610237654772733, -1.189127197265625, -0.18441650390625, 10.82788330078125
1520621015438144941, -0.08415589044650393, -0.08522115488253562, -0.22264026713062432, -1.172362060546875, -0.168848876953125, 10.77519287109375
1520621015443160941, -0.09880327644193974, -0.08335694211948017, -0.21864552549550548, -1.1543994140625, -0.168848876953125, 10.697354736328126
1520621015448175941, -0.11424961076439932, -0.07669903939428206, -0.21331920331534698, -1.169967041015625, -0.199984130859375, 10.58359130859375
1520621015453190941, -0.12756541621479553, -0.06791060779702057, -0.20719393280816475, -1.20948486328125, -0.228724365234375, 10.510543212890626
1520621015458207941, -0.14034858944717588, -0.05566006678265608, -0.2045307717180855, -1.1951147460937501, -0.23111938476562502, 10.467432861328126
1520621015463222941, -0.14993596937146111, -0.04287689355027574, -0.2010686623009825, -1.162781982421875, -0.24189697265625001, 10.397977294921876
1520621015468238941, -0.15899071707773052, -0.035153726389045944, -0.19574234012082403, -1.102906494140625, -0.24069946289062502, 10.316546630859376
1520621015473254941, -0.16777914867499202, -0.021837920938649755, -0.18961706961364178, -1.0753637695312501, -0.24548950195312502, 10.297386474609375
1520621015478268941, -0.17283915474614256, -0.01038632825130903, -0.1856223279785229, -1.0238708496093751, -0.243094482421875, 10.2458935546875
1520621015483284941, -0.17630126416324557, -0.00026631610900792384, -0.1808286380163803, -1.033450927734375, -0.27303222656250004, 10.177635498046875
1520621015488300941, -0.17949705747134068, 0.009853696033293183, -0.17789916081729312, -0.9975256347656251, -0.290994873046875, 10.25068359375
1520621015493316941, -0.1776328447082852, 0.018375811521546746, -0.17257283863713466, -0.906514892578125, -0.28740234375, 10.2458935546875
1520621015498331941, -0.17257283863713466, 0.02290318537468145, -0.16618125202094447, -0.820294189453125, -0.23710693359375, 10.2315234375
1520621015503346941, -0.16671388423896033, 0.02769687533682408, -0.157392820423683, -0.7855664062500001, -0.233514404296875, 10.26744873046875
1520621015508362941, -0.15792545264169883, 0.029561088099879545, -0.14168016999221547, -0.79754150390625, -0.250279541015625, 10.247091064453125
1520621015513378941, -0.14514227940931848, 0.03382214584400633, -0.13022857730487475, -0.798739013671875, -0.24548950195312502, 10.18601806640625
1520621015518394941, -0.1352885833760253, 0.038615835806148954, -0.11877698461753403, -0.8514294433593751, -0.18681152343750002, 10.170450439453125
1520621015523409941, -0.12170646181662119, 0.04607268685837083, -0.1094559208022567, -0.79754150390625, -0.164058837890625, 10.152487792968751
1520621015528424941, -0.10519486305812992, 0.04926848016646591, -0.0972053797878922, -0.7280859375000001, -0.096998291015625, 10.121352539062501
1520621015533439941, -0.08788431597261487, 0.05406217012860854, -0.07803061993932169, -0.626297607421875, 0.010777587890625, 10.041119384765626
1520621015538456941, -0.06657902725198096, 0.05406217012860854, -0.055926382891664, -0.55324951171875, 0.118553466796875, 10.039921875000001
1520621015543470941, -0.043143209659283664, 0.05273058958356892, -0.02822950755483993, -0.525706787109375, 0.20597167968750002, 10.031539306640626
1520621015548486941, -0.019174759848570515, 0.05779059565471947, -0.0010652644360316954, -0.542471923828125, 0.259859619140625, 10.031539306640626
1520621015553501941, 0.006125270507182248, 0.06578007892495719, 0.030093720317895395, -0.53408935546875, 0.24189697265625001, 10.019564208984375
1520621015558517941, 0.03195793308095086, 0.07137271721412358, 0.05965480841777494, -0.51013916015625, 0.25147705078125, 10.015971679687501
1520621015563533941, 0.05672533121868778, 0.07803061993932169, 0.08761799986360694, -0.504151611328125, 0.22273681640625, 10.000404052734375
1520621015568549941, 0.08122641324741676, 0.08388957433749601, 0.11744540407249442, -0.49337402343750003, 0.168848876953125, 10.031539306640626
1520621015573564941, 0.1059938113851537, 0.08735168375459902, 0.14460964719130265, -0.52929931640625, 0.10059082031250001, 10.108179931640626
1520621015578580941, 0.12889699675983513, 0.08841694819063071, 0.16511598758491278, -0.60114990234375, 0.0335302734375, 10.193203125
1520621015583594941, 0.14966965326245318, 0.0860201032095594, 0.18242653467042783, -0.710123291015625, -0.020357666015625, 10.192005615234375
1520621015588610941, 0.17017599365606334, 0.08548747099154355, 0.19334549513975272, -0.7747888183593751, -0.12693603515625002, 10.2458935546875
1520621015593627941, 0.18828548906860215, 0.08681905153658317, 0.19840550121090325, -0.8538244628906251, -0.18082397460937502, 10.2315234375
1520621015598642941, 0.20319919117304588, 0.08761799986360694, 0.20373182339106174, -0.8514294433593751, -0.173638916015625, 10.29139892578125
1520621015603657941, 0.21811289327748962, 0.08335694211948017, 0.20612866837213306, -0.822689208984375, -0.16525634765625, 10.311756591796875
1520621015608673941, 0.2346244920359809, 0.07403587830420283, 0.21331920331534698, -0.814306640625, -0.125738525390625, 10.3512744140625
1520621015613688941, 0.24980451024943257, 0.06578007892495719, 0.21971078993153717, -0.810714111328125, -0.06586303710937501, 10.41114990234375
1520621015618704941, 0.265783476789908, 0.05858954398174324, 0.2279665893107828, -0.8322692871093751, 0.009580078125, 10.36564453125
1520621015623719941, 0.2836266560934389, 0.0513990090385293, 0.23409185981796504, -0.7520361328125, 0.03592529296875, 10.292596435546875
1520621015628735941, 0.30306773205101734, 0.048203215730434214, 0.24421187196026617, -0.707728271484375, 0.1149609375, 10.225535888671876
1520621015633750941, 0.3227751241176037, 0.049002164057457984, 0.25779399351967025, -0.72090087890625, 0.147293701171875, 10.13332763671875
1520621015638766941, 0.34141725174815835, 0.05406217012860854, 0.26658242511693175, -0.750838623046875, 0.164058837890625, 10.089019775390625
1520621015643781941, 0.35952674716069716, 0.06391586616190172, 0.2748382244961774, -0.7807763671875, 0.15088623046875002, 10.039921875000001
1520621015648798941, 0.38109835199033903, 0.07403587830420283, 0.2820287594393913, -0.861009521484375, 0.11017089843750001, 10.001601562500001
1520621015653813941, 0.39920784740287785, 0.08362325822848808, 0.2860235010745102, -0.868194580078125, 0.10777587890625001, 10.0255517578125
1520621015658828941, 0.4111920723082344, 0.09214537371674165, 0.28842034605558153, -0.9412426757812501, 0.05748046875, 10.127340087890625
1520621015663845941, 0.42184471666855133, 0.09667274756987636, 0.2892192943826053, -0.99393310546875, 0.020357666015625, 10.30576904296875
1520621015668860941, 0.4239752455406148, 0.09427590258880504, 0.2825613916574072, -1.0154882812500001, -0.056282958984375006, 10.487790527343751
1520621015673876941, 0.4237089294316068, 0.08575378710055148, 0.27750138558625664, -1.0454260253906251, -0.1149609375, 10.606343994140625
1520621015678891941, 0.41944787168748005, 0.06791060779702057, 0.2708434828610585, -1.1088940429687502, -0.197589111328125, 10.7536376953125
1520621015683905941, 0.41172470452625026, 0.043143209659283664, 0.25885925795570197, -1.2202624511718752, -0.28021728515625, 10.930869140625001
1520621015688923941, 0.40160469238394914, 0.01651159875849128, 0.24394555585125824, -1.2789404296875, -0.324525146484375, 11.041040039062501
1520621015693938941, 0.3888215191515688, -0.009321063815277334, 0.22849922152879865, -1.337618408203125, -0.38200561523437504, 11.086545410156251
1520621015698952941, 0.3744404492651409, -0.03382214584400633, 0.2119876227703074, -1.3651611328125002, -0.39996826171875, 11.1512109375
1520621015703969941, 0.3584614827246655, -0.05539375067364816, 0.19254654681272892, -1.3939013671875, -0.3448828125, 11.152408447265625
1520621015708984941, 0.34461304505625345, -0.07297061386817114, 0.1731054708551505, -1.3316308593750001, -0.3065625, 11.015892333984375
1520621015714000941, 0.3294330268428018, -0.08921589651765449, 0.15499597544261168, -1.35797607421875, -0.28380981445312503, 10.981164550781251
1520621015719015941, 0.3169161697194294, -0.10306433418606653, 0.13662016392106494, -1.2933105468750001, -0.23710693359375, 10.927276611328125
1520621015724031941, 0.3022687837239936, -0.10972223691126462, 0.11797803629051026, -1.208287353515625, -0.183218994140625, 10.89494384765625
1520621015729046941, 0.28895297827359734, -0.12117382959860534, 0.1038632825130903, -1.141226806640625, -0.130528564453125, 10.881771240234375
1520621015734061941, 0.2711097989700665, -0.12942962897785099, 0.09294432204376542, -1.0669812011718751, -0.07065307617187501, 10.815908203125
1520621015739077941, 0.2559297807566148, -0.13608753170304907, 0.08202536157444054, -1.0681787109375, -0.0335302734375, 10.8206982421875
1520621015744093941, 0.23941818199812354, -0.14168016999221547, 0.08016114881138507, -1.047821044921875, 0.023950195312500002, 10.84225341796875
1520621015749107941, 0.22583606043871943, -0.14487596330031058, 0.07856325215733753, -1.025068359375, 0.047900390625000004, 10.825488281250001
1520621015754124941, 0.2119876227703074, -0.1483380727174136, 0.07696535550328999, -1.0346484375, 0.029937744140625, 10.838660888671875
1520621015759139941, 0.19281286292173686, -0.14780544049939773, 0.07483482663122659, -1.00830322265625, 0.029937744140625, 10.910511474609375
1520621015764155941, 0.1744370514001901, -0.14913702104443735, 0.07084008499610774, -1.02267333984375, 0.034727783203125, 10.903326416015625
1520621015769170941, 0.15952334929574638, -0.15446334322459582, 0.07004113666908397, -1.0202783203125, -0.00239501953125, 10.922486572265626
1520621015774186941, 0.14114753777419964, -0.16351809093086522, 0.06950850445106813, -1.021475830078125, -0.011975097656250001, 10.91889404296875
1520621015779201941, 0.12250541014364497, -0.1731054708551505, 0.06737797557900473, -1.004710693359375, -0.0622705078125, 10.90931396484375
1520621015784216941, 0.1073253919301933, -0.18029600579836444, 0.06311691783487795, -0.996328125, -0.085023193359375, 10.867401123046875
1520621015789232941, 0.08868326429963864, -0.18801917295959422, 0.06098638896281456, -1.005908203125, -0.140108642578125, 10.8685986328125
1520621015794247941, 0.07217166554114736, -0.19254654681272892, 0.05539375067364816, -0.9975256347656251, -0.11256591796875001, 10.805130615234376
1520621015799263941, 0.05965480841777494, -0.18935075350463385, 0.04793689962142629, -0.99393310546875, -0.10777587890625001, 10.74884765625
1520621015804280941, 0.045540054640354974, -0.1832254829974516, 0.04527373853134705, -0.9927355957031251, -0.12693603515625002, 10.71052734375
1520621015809295941, 0.031158984753927088, -0.1731054708551505, 0.03728425526110934, -0.97716796875, -0.089813232421875, 10.624306640625
1520621015814310941, 0.018375811521546746, -0.16351809093086522, 0.032756881407974635, -0.9568103027343751, -0.061072998046875, 10.520123291015626
1520621015819326941, 0.0055926382891664005, -0.1528654465705483, 0.02982740420888747, -0.9651928710937501, -0.056282958984375006, 10.528505859375
1520621015824341941, -0.003728425526110934, -0.1408812216651917, 0.02689792700980031, -0.9328601074218751, -0.0718505859375, 10.522518310546875
1520621015829357941, -0.019174759848570515, -0.13102752563189854, 0.026098978682776535, -0.9496252441406251, -0.116158447265625, 10.541678466796876
1520621015834372941, -0.030892668644919165, -0.12010856516257365, 0.023169501483689375, -1.00351318359375, -0.1197509765625, 10.494975585937501
1520621015839388941, -0.04420847409531536, -0.108390656366225, 0.02476739813773692, -0.9951306152343751, -0.168848876953125, 10.469827880859375
1520621015844404941, -0.05779059565471947, -0.09693906367888427, 0.02210423704765768, -1.01309326171875, -0.20836669921875, 10.487790527343751
1520621015849418941, -0.0692421883420602, -0.08655273542757524, 0.018375811521546746, -1.057401123046875, -0.28021728515625, 10.424322509765625
1520621015854435941, -0.07882956826634546, -0.07456851052221868, 0.015712650431467506, -1.107696533203125, -0.358055419921875, 10.481802978515626
1520621015859450941, -0.09400958647979711, -0.06178533728983833, 0.009054747706269411, -1.13763427734375, -0.43110351562500004, 10.541678466796876
1520621015864466941, -0.10759170803920123, -0.050866376820513454, -0.001331580545039619, -1.1927197265625, -0.5269042968750001, 10.587183837890626
1520621015869482941, -0.1195759329445578, -0.045540054640354974, -0.01384843766841204, -1.17116455078125, -0.5700146484375, 10.64107177734375
1520621015874498941, -0.1307612095228906, -0.04154531300523612, -0.02716424311880823, -1.174757080078125, -0.5700146484375, 10.675799560546876
1520621015879512941, -0.1430117505372551, -0.04234426133225989, -0.03941478413317273, -1.136436767578125, -0.566422119140625, 10.72250244140625
1520621015884527941, -0.1555286076606275, -0.044741106313331204, -0.05326322180158477, -1.098116455078125, -0.5245092773437501, 10.739267578125
1520621015889543941, -0.1629854587128494, -0.050866376820513454, -0.06471481448892549, -1.02267333984375, -0.45026367187500005, 10.747650146484375
1520621015894559941, -0.1709749419830871, -0.05752427954571155, -0.0727042977591632, -0.9627978515625001, -0.30416748046875003, 10.697354736328126
1520621015899573941, -0.17683389638126143, -0.06764429168801266, -0.07616640717626622, -0.904119873046875, -0.16166381835937502, 10.591973876953126
1520621015904590941, -0.17630126416324557, -0.07297061386817114, -0.07510114274023452, -0.8562194824218751, -0.05748046875, 10.4470751953125
1520621015909606941, -0.16937704532903955, -0.07350324608618698, -0.07217166554114736, -0.808319091796875, 0.027542724609375003, 10.345286865234376
1520621015914621941, -0.16218651038582563, -0.06844324001503643, -0.07084008499610774, -0.7855664062500001, 0.137713623046875, 10.35845947265625
1520621015919637941, -0.1531317626795562, -0.06285060172587002, -0.06737797557900473, -0.71132080078125, 0.219144287109375, 10.321336669921875
1520621015924653941, -0.14061490555618378, -0.05299690569257685, -0.058855860090751166, -0.661025390625, 0.286204833984375, 10.286608886718751
1520621015929668941, -0.12756541621479553, -0.04420847409531536, -0.04846953183944214, -0.60114990234375, 0.324525146484375, 10.2746337890625
1520621015934683941, -0.11158644967432009, -0.034354778062022175, -0.03994741635118858, -0.506546630859375, 0.34727783203125, 10.1979931640625
1520621015939698941, -0.09480853480682089, -0.02636529479178446, -0.02982740420888747, -0.499361572265625, 0.367635498046875, 10.148895263671875
1520621015944715941, -0.0759000910672583, -0.021571604829641832, -0.016777914867499202, -0.4550537109375, 0.377215576171875, 10.117760009765625
1520621015949729941, -0.05992112452678287, -0.015712650431467506, -0.0007989483270237715, -0.4263134765625, 0.37362304687500003, 10.121352539062501
1520621015954746941, -0.04181162911424404, -0.01651159875849128, 0.01651159875849128, -0.40954833984375, 0.37242553710937504, 10.136920166015626
1520621015959761941, -0.021038972611625982, -0.01864212763055467, 0.03062635253591124, -0.41194335937500004, 0.338895263671875, 10.19080810546875
1520621015964777941, -0.005858954398174325, -0.019707392066586366, 0.04447479020432328, -0.434696044921875, 0.3113525390625, 10.206375732421876
1520621015969793941, 0.011185276578332801, -0.021837920938649755, 0.05459480234662439, -0.45744873046875, 0.255069580078125, 10.218350830078126
1520621015974807941, 0.02769687533682408, -0.023169501483689375, 0.06604639503396512, -0.475411376953125, 0.23590942382812502, 10.19080810546875
1520621015979824941, 0.04367584187729951, -0.02210423704765768, 0.07190534943213944, -0.561632080078125, 0.20357666015625, 10.175240478515626
1520621015984838941, 0.06098638896281456, -0.016777914867499202, 0.07856325215733753, -0.62031005859375, 0.162861328125, 10.182425537109376
1520621015989855941, 0.07696535550328999, -0.008788431597261486, 0.08362325822848808, -0.6514453125, 0.137713623046875, 10.1405126953125
1520621015994870941, 0.08868326429963864, 0.0, 0.0849548387735277, -0.7041357421875001, 0.07065307617187501, 10.13332763671875
1520621015999885941, 0.09986854087797144, 0.01038632825130903, 0.08442220655551186, -0.7640112304687501, 0.00239501953125, 10.134525146484375
1520621016004901941, 0.11211908189233594, 0.02423476591972107, 0.08415589044650393, -0.7711962890625, -0.037122802734375, 10.1309326171875
1520621016009916941, 0.12117382959860534, 0.035153726389045944, 0.08175904546543261, -0.7747888183593751, -0.125738525390625, 10.117760009765625
1520621016014932941, 0.1272991001057876, 0.043942157986307434, 0.07749798772130584, -0.8538244628906251, -0.178428955078125, 10.160870361328126
1520621016019948941, 0.13129384174090644, 0.048203215730434214, 0.07510114274023452, -0.8777746582031251, -0.20118164062500002, 10.20996826171875
1520621016024963941, 0.13582121559404114, 0.047404267403410444, 0.06977482056007604, -0.882564697265625, -0.25626708984375, 10.292596435546875
1520621016029979941, 0.13502226726701738, 0.047404267403410444, 0.06791060779702057, -0.88855224609375, -0.28979736328125, 10.4374951171875
1520621016034994941, 0.13475595115800945, 0.04713795129440252, 0.06578007892495719, -0.918489990234375, -0.257464599609375, 10.4470751953125
1520621016040011941, 0.13315805450396193, 0.04367584187729951, 0.06098638896281456, -0.920885009765625, -0.26345214843750003, 10.472222900390625
1520621016045025941, 0.1283643645418193, 0.04261057744126781, 0.0569916473276957, -0.942440185546875, -0.25267456054687504, 10.487790527343751
1520621016050040941, 0.12676646788777174, 0.04074636467821235, 0.051665325147537224, -0.948427734375, -0.24908203125, 10.48300048828125
1520621016055057941, 0.1251685712337242, 0.040480048569204424, 0.047404267403410444, -0.93166259765625, -0.255069580078125, 10.4758154296875
1520621016060072941, 0.12117382959860534, 0.04527373853134705, 0.04340952576829159, -0.93884765625, -0.259859619140625, 10.407557373046876
1520621016065088941, 0.12010856516257365, 0.049002164057457984, 0.037816887479125184, -0.9580078125, -0.23231689453125, 10.338101806640626
1520621016070103941, 0.1206411973805895, 0.05672533121868778, 0.030093720317895395, -0.9544152832031251, -0.21794677734375, 10.36324951171875
1520621016075119941, 0.12117382959860534, 0.06391586616190172, 0.023169501483689375, -0.987945556640625, -0.197589111328125, 10.391989746093751
1520621016080135941, 0.1195759329445578, 0.07217166554114736, 0.013582121559404116, -0.948427734375, -0.15687377929687502, 10.429112548828126
1520621016085149941, 0.1195759329445578, 0.08362325822848808, 0.004261057744126781, -0.918489990234375, -0.149688720703125, 10.436297607421876
1520621016090165941, 0.11930961683554989, 0.09454221869781296, -0.003195793308095086, -0.9544152832031251, -0.149688720703125, 10.44468017578125
1520621016095182941, 0.11717908796348649, 0.1038632825130903, -0.011984224905356573, -0.928070068359375, -0.12094848632812501, 10.43989013671875
1520621016100196941, 0.11584750741844686, 0.10998855302027255, -0.01731054708551505, -0.8861572265625001, -0.12214599609375, 10.457852783203126
1520621016105213941, 0.11105381745630424, 0.111852765783328, -0.02077265650261806, -0.91250244140625, -0.1149609375, 10.541678466796876
1520621016110228941, 0.10652644360316954, 0.111852765783328, -0.020240024284602212, -0.9077124023437501, -0.096998291015625, 10.565628662109376
1520621016115243941, 0.10146643753201898, 0.10679275971217746, -0.02290318537468145, -0.890947265625, -0.111368408203125, 10.613529052734375
1520621016120259941, 0.0950748509158288, 0.10013485698697937, -0.022370553156665602, -0.87897216796875, -0.1293310546875, 10.608739013671876
1520621016125273941, 0.08761799986360694, 0.09321063815277335, -0.022636869265673525, -0.8837622070312501, -0.10059082031250001, 10.645861816406251
1520621016130290941, 0.08175904546543261, 0.08921589651765449, -0.01864212763055467, -0.923280029296875, -0.106578369140625, 10.624306640625
1520621016135305941, 0.0727042977591632, 0.0860201032095594, -0.016245282649483356, -0.9412426757812501, -0.09340576171875001, 10.60275146484375
1520621016140322941, 0.07030745277809189, 0.08548747099154355, -0.01651159875849128, -0.925675048828125, -0.113763427734375, 10.5428759765625
1520621016145337941, 0.06897587223305228, 0.08681905153658317, -0.017044230976507126, -0.9436376953125001, -0.09340576171875001, 10.508148193359375
1520621016150351941, 0.06524744670694134, 0.08921589651765449, -0.019174759848570515, -0.9196875, -0.0814306640625, 10.517728271484376
1520621016155368941, 0.06205165339884625, 0.09241168982574957, -0.021038972611625982, -0.9604028320312501, -0.0718505859375, 10.53569091796875
1520621016160382941, 0.0580569117637274, 0.09906959255094767, -0.0234358175926973, -0.9520202636718751, -0.0814306640625, 10.53090087890625
1520621016165399941, 0.05459480234662439, 0.10546117916713783, -0.02769687533682408, -0.929267578125, -0.05987548828125, 10.613529052734375
1520621016170414941, 0.05193164125654515, 0.11211908189233594, -0.02982740420888747, -0.978365478515625, -0.011975097656250001, 10.627899169921875
1520621016175430941, 0.047404267403410444, 0.11717908796348649, -0.03222424918995878, -0.9460327148437501, -0.06586303710937501, 10.644664306640626
1520621016180445941, 0.03941478413317273, 0.11744540407249442, -0.02982740420888747, -0.9651928710937501, -0.061072998046875, 10.712922363281251
1520621016185460941, 0.031158984753927088, 0.11451592687340725, -0.02849582366384785, -0.97716796875, -0.0143701171875, 10.74884765625
1520621016190477941, 0.022636869265673525, 0.10972223691126462, -0.024501082028728992, -0.929267578125, -0.0143701171875, 10.819500732421876
1520621016195492941, 0.01384843766841204, 0.09880327644193974, -0.017576863194522972, -0.8705895996093751, 0.01916015625, 10.8446484375
1520621016200506941, 0.003994741635118857, 0.08761799986360694, -0.012250541014364496, -0.8969348144531251, 0.052690429687500005, 10.912906494140625
1520621016205523941, -0.005858954398174325, 0.07483482663122659, -0.004527373853134706, -0.906514892578125, 0.045505371093750004, 10.90452392578125
1520621016210538941, -0.015180018213451659, 0.06045375674479871, 0.007190534943213944, -0.8430468750000001, 0.09819580078125001, 10.89015380859375
1520621016215554941, -0.026631610900792385, 0.04527373853134705, 0.017576863194522972, -0.79275146484375, 0.128133544921875, 10.898536376953125
1520621016220570941, -0.038615835806148954, 0.02929477199087162, 0.030892668644919165, -0.7855664062500001, 0.13412109375, 10.86380859375
1520621016225586941, -0.04926848016646591, 0.016777914867499202, 0.04367584187729951, -0.795146484375, 0.1149609375, 10.8877587890625
1520621016230600941, -0.05539375067364816, 0.003195793308095086, 0.05566006678265608, -0.789158935546875, 0.13172607421875002, 10.824290771484376
1520621016235615941, -0.06471481448892549, -0.005858954398174325, 0.06897587223305228, -0.7855664062500001, 0.13651611328125002, 10.78477294921875
1520621016240631941, -0.07004113666908397, -0.01384843766841204, 0.08096009713840885, -0.801134033203125, 0.128133544921875, 10.764415283203126
1520621016245648941, -0.07297061386817114, -0.02077265650261806, 0.09347695426178126, -0.805924072265625, 0.116158447265625, 10.769205322265625
1520621016250662941, -0.07430219441321075, -0.027430559227816155, 0.10359696640408238, -0.8214916992187501, 0.104183349609375, 10.74884765625
1520621016255678941, -0.07696535550328999, -0.03408846195301425, 0.10892328858424084, -0.852626953125, 0.106578369140625, 10.712922363281251
1520621016260693941, -0.07510114274023452, -0.041278996896228194, 0.11691277185447857, -0.85023193359375, 0.082628173828125, 10.69376220703125
1520621016265709941, -0.07350324608618698, -0.04873584794845006, 0.1195759329445578, -0.9029223632812501, 0.06466552734375, 10.660231933593751
1520621016270726941, -0.06844324001503643, -0.04953479627547384, 0.11877698461753403, -0.93645263671875, 0.045505371093750004, 10.606343994140625
1520621016275740941, -0.0636495500528938, -0.05033374460249761, 0.11824435239951818, -0.9951306152343751, 0.028740234375, 10.600356445312501
1520621016280757941, -0.05539375067364816, -0.05113269292952138, 0.11531487520043102, -0.9951306152343751, 0.023950195312500002, 10.58359130859375
1520621016285771941, -0.04793689962142629, -0.05273058958356892, 0.10918960469324877, -0.98914306640625, -0.008382568359375, 10.562036132812501
1520621016290787941, -0.04154531300523612, -0.055926382891664, 0.10652644360316954, -0.948427734375, -0.0047900390625, 10.540480957031251
1520621016295803941, -0.03249056529896671, -0.0569916473276957, 0.10253170196805068, -0.983155517578125, -0.028740234375, 10.524913330078126
1520621016300817941, -0.021571604829641832, -0.05992112452678287, 0.0982706442239239, -0.9520202636718751, -0.052690429687500005, 10.510543212890626
1520621016305834941, -0.012516857123372421, -0.06444849837991756, 0.09880327644193974, -0.9005273437500001, -0.023950195312500002, 10.505753173828126
1520621016310849941, -0.001597896654047543, -0.07004113666908397, 0.09640643146086843, -0.9029223632812501, -0.0335302734375, 10.474617919921876
1520621016315866941, 0.012516857123372421, -0.07137271721412358, 0.09906959255094767, -0.882564697265625, -0.001197509765625, 10.43031005859375
1520621016320881941, 0.026631610900792385, -0.07669903939428206, 0.09747169589690012, -0.829874267578125, 0.009580078125, 10.412347412109375
1520621016325897941, 0.04074636467821235, -0.080427464920393, 0.10093380531400313, -0.844244384765625, 0.013172607421875001, 10.397977294921876
1520621016330924941, 0.05486111845563231, -0.0849548387735277, 0.10439591473110614, -0.8837622070312501, 0.026345214843750003, 10.43031005859375
1520621016335927941, 0.06791060779702057, -0.08921589651765449, 0.10705907582118539, -0.918489990234375, 0.003592529296875, 10.4183349609375
1520621016340943941, 0.08202536157444054, -0.09294432204376542, 0.1059938113851537, -0.9340576171875, 0.00718505859375, 10.441087646484375
1520621016345958941, 0.09614011535186051, -0.0937432703707892, 0.1038632825130903, -0.966390380859375, -0.02155517578125, 10.450667724609376
1520621016350972941, 0.108390656366225, -0.09400958647979711, 0.10146643753201898, -0.999920654296875, -0.01676513671875, 10.445877685546876
1520621016355989941, 0.12436962290670044, -0.09187905760773372, 0.09747169589690012, -1.02746337890625, -0.055085449218750006, 10.37761962890625
1520621016361005941, 0.13662016392106494, -0.08655273542757524, 0.09081379317170203, -1.06578369140625, -0.044307861328125, 10.406359863281251
1520621016366020941, 0.14887070493542942, -0.0849548387735277, 0.0849548387735277, -1.102906494140625, -0.050295410156250005, 10.427915039062501
1520621016371037941, 0.16138756205880184, -0.07856325215733753, 0.07723167161229791, -1.1112890625, -0.049097900390625004, 10.386002197265626
1520621016376052941, 0.1720402064191188, -0.07243798165015529, 0.06950850445106813, -1.134041748046875, -0.055085449218750006, 10.34887939453125
1520621016381066941, 0.185356011869515, -0.06498113059793342, 0.060720072853806636, -1.136436767578125, -0.029937744140625, 10.271041259765626
1520621016386082941, 0.19680760455685573, -0.05273058958356892, 0.053529537910592694, -1.140029296875, -0.04071533203125, 10.211165771484376
1520621016391098941, 0.2111886744432836, -0.04420847409531536, 0.04527373853134705, -1.159189453125, -0.06945556640625, 10.188413085937501
1520621016396113941, 0.2234392154576481, -0.035153726389045944, 0.0391484680241648, -1.162781982421875, -0.077838134765625, 10.187215576171875
1520621016401129941, 0.23861923367109977, -0.021837920938649755, 0.03249056529896671, -1.155596923828125, -0.07065307617187501, 10.189610595703126
1520621016406145941, 0.2545982002115752, -0.009853696033293183, 0.026631610900792385, -1.124461669921875, -0.06945556640625, 10.11895751953125
1520621016411159941, 0.2668487412259397, 0.0010652644360316954, 0.021038972611625982, -1.1268566894531251, -0.009580078125, 10.13332763671875
1520621016416175941, 0.2822950755483993, 0.009853696033293183, 0.017576863194522972, -1.124461669921875, 0.037122802734375, 10.117760009765625
1520621016421191941, 0.2996056226339143, 0.01384843766841204, 0.021837920938649755, -1.10410400390625, 0.089813232421875, 10.135722656250001
1520621016426207941, 0.31451932473835803, 0.014913702104443736, 0.026098978682776535, -1.07296875, 0.13172607421875002, 10.117760009765625
1520621016431222941, 0.3344930329139523, 0.015180018213451659, 0.03195793308095086, -1.0406359863281252, 0.143701171875, 10.110574951171875
1520621016436238941, 0.35206989610847533, 0.017044230976507126, 0.03941478413317273, -1.047821044921875, 0.17962646484375, 10.03752685546875
1520621016441254941, 0.3675162304309349, 0.015446334322459582, 0.04074636467821235, -1.059796142578125, 0.20357666015625, 9.99920654296875
1520621016446269941, 0.38456046140744204, 0.01384843766841204, 0.04340952576829159, -1.064586181640625, 0.25387207031250003, 10.087822265625
1520621016451284941, 0.3968110024218065, 0.011185276578332801, 0.04607268685837083, -1.06099365234375, 0.286204833984375, 10.182425537109376
1520621016456300941, 0.40480048569204424, 0.007456851052221868, 0.04980111238448176, -0.9903405761718751, 0.30296997070312504, 10.23870849609375
1520621016461315941, 0.412523652853274, 0.006125270507182248, 0.05566006678265608, -0.9843530273437501, 0.35326538085937503, 10.28181884765625
1520621016466332941, 0.4178499750334325, 0.00346210941710301, 0.05858954398174324, -0.9651928710937501, 0.3975732421875, 10.2746337890625
1520621016471347941, 0.42104576834152757, 0.0021305288720633907, 0.06684534336098888, -0.8765771484375, 0.38200561523437504, 10.29139892578125
1520621016476363941, 0.42051313612351177, 0.001331580545039619, 0.0737695621951949, -0.9029223632812501, 0.32811767578125, 10.3033740234375
1520621016481377941, 0.4199805039054959, -0.0029294771990871623, 0.08175904546543261, -0.8813671875000001, 0.3113525390625, 10.330916748046876
1520621016486394941, 0.41358891728930575, -0.009054747706269411, 0.08948221262666241, -0.8777746582031251, 0.267044677734375, 10.298583984375
1520621016491409941, 0.4109257561992265, -0.017843179303530896, 0.09134642538971788, -0.9627978515625001, 0.276624755859375, 10.32492919921875
1520621016496424941, 0.4053331179100601, -0.02423476591972107, 0.09347695426178126, -1.0011181640625, 0.24548950195312502, 10.383607177734376
1520621016501440941, 0.3968110024218065, -0.031158984753927088, 0.09241168982574957, -1.016685791015625, 0.192799072265625, 10.433902587890625
1520621016506456941, 0.38828888693355296, -0.038615835806148954, 0.08681905153658317, -1.038240966796875, 0.147293701171875, 10.4614453125
1520621016511471941, 0.3784351909002598, -0.04074636467821235, 0.07936220048436131, -1.09931396484375, 0.128133544921875, 10.511740722656251
1520621016516487941, 0.36352148879581603, -0.04287689355027574, 0.06977482056007604, -1.13284423828125, 0.09819580078125001, 10.534493408203126
1520621016521503941, 0.34780883836434856, -0.04793689962142629, 0.05779059565471947, -1.16158447265625, 0.12334350585937501, 10.509345703125
1520621016526518941, 0.3342267168049444, -0.050866376820513454, 0.04953479627547384, -1.1088940429687502, 0.18681152343750002, 10.560838623046875
1520621016531533941, 0.31878038248248486, -0.05246427347456099, 0.04154531300523612, -1.0789562988281252, 0.199984130859375, 10.570418701171876
1520621016536550941, 0.29880667430689056, -0.05246427347456099, 0.0346210941710301, -1.057401123046875, 0.25387207031250003, 10.587183837890626
1520621016541564941, 0.2817624433303834, -0.05060006071150553, 0.026631610900792385, -1.052611083984375, 0.269439697265625, 10.600356445312501
1520621016546580941, 0.2625876834818129, -0.04793689962142629, 0.020506340393610135, -1.081351318359375, 0.288599853515625, 10.611134033203125
1520621016551595941, 0.24154871087018692, -0.043143209659283664, 0.016777914867499202, -1.0777587890625, 0.33290771484375004, 10.601553955078126
1520621016556611941, 0.21971078993153717, -0.03808320358813311, 0.012783173232380344, -1.0238708496093751, 0.37122802734375004, 10.6578369140625
1520621016561628941, 0.19787286899288742, -0.03142530086293501, 0.004793689962142629, -0.99393310546875, 0.43110351562500004, 10.680589599609375
1520621016566642941, 0.17843179303530898, -0.02290318537468145, 0.0021305288720633907, -0.942440185546875, 0.48379394531250003, 10.649454345703125
1520621016571658941, 0.15712650431467506, -0.017576863194522972, -0.0005326322180158477, -0.887354736328125, 0.520916748046875, 10.65065185546875
1520621016576674941, 0.1339570028309857, -0.011451592687340724, -0.0023968449810713144, -0.846639404296875, 0.540076904296875, 10.631491699218751
1520621016581688941, 0.11371697854638348, -0.004261057744126781, -0.00692421883420602, -0.841849365234375, 0.5508544921875, 10.55964111328125
1520621016586705941, 0.09614011535186051, 0.00346210941710301, -0.00825579937924564, -0.8286767578125, 0.580792236328125, 10.56443115234375
1520621016591720941, 0.07669903939428206, 0.013315805450396193, -0.011451592687340724, -0.8190966796875, 0.5736071777343751, 10.556048583984376
1520621016596736941, 0.05992112452678287, 0.021305288720633905, -0.014114753777419964, -0.8286767578125, 0.5783972167968751, 10.577603759765626
1520621016601750941, 0.043143209659283664, 0.032756881407974635, -0.017044230976507126, -0.8095166015625, 0.5604345703125, 10.54527099609375
1520621016606767941, 0.027430559227816155, 0.043143209659283664, -0.02077265650261806, -0.805924072265625, 0.544866943359375, 10.526110839843751
1520621016611783941, 0.013049489341388268, 0.05432848623761646, -0.01944107595757844, -0.805924072265625, 0.5077441406250001, 10.5428759765625
1520621016616797941, 0.0, 0.06551376281594927, -0.0234358175926973, -0.8131091308593751, 0.46702880859375, 10.57401123046875
1520621016621813941, -0.011185276578332801, 0.07510114274023452, -0.026631610900792385, -0.8478369140625001, 0.4167333984375, 10.565628662109376
1520621016626829941, -0.026098978682776535, 0.08681905153658317, -0.03195793308095086, -0.88855224609375, 0.36643798828125, 10.546468505859375
1520621016631844941, -0.040480048569204424, 0.09454221869781296, -0.03941478413317273, -0.91729248046875, 0.37362304687500003, 10.579998779296876
1520621016636861941, -0.04846953183944214, 0.10226538585904275, -0.047404267403410444, -0.910107421875, 0.326920166015625, 10.599158935546875
1520621016641880941, -0.06391586616190172, 0.10892328858424084, -0.05512743456464023, -0.8957373046875, 0.314945068359375, 10.594368896484376
1520621016646891941, -0.07643272328527415, 0.11664645574547064, -0.06418218227090965, -0.8622070312500001, 0.329315185546875, 10.558443603515625
1520621016651906941, -0.08868326429963864, 0.12250541014364497, -0.07323692997717905, -0.884959716796875, 0.317340087890625, 10.565628662109376
1520621016656923941, -0.09906959255094767, 0.12596751956074798, -0.08229167768344847, -0.887354736328125, 0.29937744140625, 10.568023681640625
1520621016661939941, -0.1105211852382884, 0.1307612095228906, -0.08868326429963864, -0.8370593261718751, 0.281414794921875, 10.55964111328125
1520621016666953941, -0.11904330072654196, 0.1339570028309857, -0.0937432703707892, -0.8214916992187501, 0.279019775390625, 10.57640625
1520621016671968941, -0.12703278399677967, 0.1352885833760253, -0.09960222476896352, -0.829874267578125, 0.30296997070312504, 10.5045556640625
1520621016676985941, -0.13369068672197776, 0.13662016392106494, -0.10572749527614576, -0.805924072265625, 0.29458740234375, 10.498568115234375
1520621016681999941, -0.13662016392106494, 0.13875069279312832, -0.11025486912928047, -0.781973876953125, 0.271834716796875, 10.503358154296876
1520621016687016941, -0.14034858944717588, 0.13768542835709663, -0.11558119130943895, -0.789158935546875, 0.31374755859375003, 10.462642822265625
1520621016692032941, -0.13954964112015208, 0.13448963504900155, -0.12117382959860534, -0.75922119140625, 0.326920166015625, 10.491383056640625
1520621016697047941, -0.13715279613908077, 0.12809804843281136, -0.12436962290670044, -0.769998779296875, 0.33410522460937503, 10.4853955078125
1520621016702062941, -0.1352885833760253, 0.12117382959860534, -0.1251685712337242, -0.756826171875, 0.3879931640625, 10.465037841796876
1520621016707077941, -0.1283643645418193, 0.1150485590914231, -0.12863068065082722, -0.762813720703125, 0.39996826171875, 10.558443603515625
1520621016712093941, -0.12010856516257365, 0.1094559208022567, -0.1307612095228906, -0.76880126953125, 0.4358935546875, 10.54527099609375
1520621016717108941, -0.11238539800134385, 0.10679275971217746, -0.1318264739589223, -0.779578857421875, 0.49217651367187504, 10.53569091796875
1520621016722125941, -0.10359696640408238, 0.10120012142301106, -0.13448963504900155, -0.767603759765625, 0.5077441406250001, 10.546468505859375
1520621016727140941, -0.09214537371674165, 0.09321063815277335, -0.1339570028309857, -0.8023315429687501, 0.504151611328125, 10.55724609375
1520621016732154941, -0.08362325822848808, 0.0916127414987258, -0.13688648003007287, -0.7855664062500001, 0.5316943359375, 10.541678466796876
1520621016737172941, -0.07190534943213944, 0.08921589651765449, -0.13954964112015208, -0.7771838378906251, 0.5544470214843751, 10.500963134765625
1520621016742187941, -0.06018744063579079, 0.09001484484467825, -0.14008227333816795, -0.765208740234375, 0.54366943359375, 10.490185546875
1520621016747202941, -0.04873584794845006, 0.08735168375459902, -0.1384843766841204, -0.741258544921875, 0.540076904296875, 10.553653564453125
1520621016752217941, -0.039681100242180654, 0.08468852266451977, -0.13209279006793023, -0.6825805664062501, 0.5412744140625, 10.53090087890625
1520621016757233941, -0.029561088099879545, 0.07989483270237716, -0.1262338356697559, -0.664617919921875, 0.549656982421875, 10.582393798828125
1520621016762248941, -0.021038972611625982, 0.07057376888709982, -0.12037488127158158, -0.667012939453125, 0.508941650390625, 10.599158935546875
1520621016767265941, -0.013049489341388268, 0.06178533728983833, -0.1105211852382884, -0.623902587890625, 0.5269042968750001, 10.54527099609375
1520621016772280941, -0.005326322180158476, 0.05193164125654515, -0.10359696640408238, -0.7065307617187501, 0.532891845703125, 10.553653564453125
1520621016777295941, 0.002663161090079238, 0.043143209659283664, -0.09454221869781296, -0.718505859375, 0.469423828125, 10.539283447265625
1520621016782310941, 0.009587379924285258, 0.03568635860706179, -0.08681905153658317, -0.7125183105468751, 0.45265869140625004, 10.547666015625001
1520621016787327941, 0.012783173232380344, 0.02822950755483993, -0.07882956826634546, -0.6933581542968751, 0.45744873046875, 10.522518310546875
1520621016792342941, 0.021571604829641832, 0.021305288720633905, -0.0692421883420602, -0.6933581542968751, 0.44307861328125003, 10.556048583984376
1520621016797357941, 0.02476739813773692, 0.012250541014364496, -0.062317969507854176, -0.719703369140625, 0.44068359375000005, 10.526110839843751
1520621016802372941, 0.027430559227816155, 0.003728425526110934, -0.05406217012860854, -0.760418701171875, 0.427510986328125, 10.505753173828126
1520621016807388941, 0.03595267471606972, -0.0021305288720633907, -0.04500742242233913, -0.76880126953125, 0.43230102539062504, 10.486593017578125
1520621016812403941, 0.04101268078722027, -0.006125270507182248, -0.03648530693408557, -0.7640112304687501, 0.44307861328125003, 10.453062744140626
1520621016817419941, 0.04420847409531536, -0.009321063815277334, -0.02716424311880823, -0.762813720703125, 0.43349853515625003, 10.395582275390625
1520621016822436941, 0.051665325147537224, -0.012783173232380344, -0.02210423704765768, -0.765208740234375, 0.41194335937500004, 10.393187255859376
1520621016827451941, 0.055926382891664, -0.012250541014364496, -0.016777914867499202, -0.7616162109375001, 0.425115966796875, 10.378817138671875
1520621016832465941, 0.05832322787273532, -0.012250541014364496, -0.00692421883420602, -0.756826171875, 0.408350830078125, 10.400372314453126
1520621016837482941, 0.0625842856168621, -0.014114753777419964, -0.0005326322180158477, -0.7664062500000001, 0.42272094726562504, 10.350076904296875
1520621016842497941, 0.06311691783487795, -0.011984224905356573, 0.004261057744126781, -0.765208740234375, 0.386795654296875, 10.368039550781251
1520621016847512941, 0.06604639503396512, -0.013582121559404116, 0.007190534943213944, -0.7532336425781251, 0.43349853515625003, 10.37761962890625
1520621016852528941, 0.06631271114297303, -0.011185276578332801, 0.009054747706269411, -0.7616162109375001, 0.41912841796875, 10.390792236328126
1520621016857545941, 0.06311691783487795, -0.008522115488253563, 0.01038632825130903, -0.79754150390625, 0.360450439453125, 10.438692626953125
1520621016862560941, 0.06338323394388587, -0.007989483270237714, 0.010918960469324878, -0.79275146484375, 0.38320312500000003, 10.435100097656251
1520621016867576941, 0.0625842856168621, -0.008522115488253563, 0.009321063815277334, -0.7771838378906251, 0.38200561523437504, 10.423125
1520621016872591941, 0.06018744063579079, -0.00692421883420602, 0.007989483270237714, -0.7831713867187501, 0.377215576171875, 10.394384765625
1520621016877607941, 0.055926382891664, -0.00692421883420602, 0.009587379924285258, -0.7831713867187501, 0.365240478515625, 10.466235351562501
1520621016882621941, 0.05539375067364816, -0.008522115488253563, 0.015180018213451659, -0.718505859375, 0.377215576171875, 10.41593994140625
1520621016887637941, 0.05033374460249761, -0.006657902725198096, 0.019174759848570515, -0.7328759765625, 0.3879931640625, 10.371632080078125
1520621016892653941, 0.04793689962142629, -0.006657902725198096, 0.023968449810713145, -0.784368896484375, 0.379610595703125, 10.391989746093751
1520621016897668941, 0.04767058351241837, -0.006125270507182248, 0.02929477199087162, -0.7939489746093751, 0.348475341796875, 10.37761962890625
1520621016902683941, 0.04793689962142629, -0.007989483270237714, 0.030360036426903318, -0.7711962890625, 0.32332763671875003, 10.339299316406251
1520621016907699941, 0.046605319076386674, -0.009853696033293183, 0.03222424918995878, -0.85023193359375, 0.34368530273437503, 10.342891845703125
1520621016912716941, 0.04713795129440252, -0.01171790879634865, 0.02982740420888747, -0.844244384765625, 0.33290771484375004, 10.3416943359375
1520621016917731941, 0.05219795736555307, -0.013582121559404116, 0.029561088099879545, -0.8562194824218751, 0.35206787109375004, 10.311756591796875
1520621016922746941, 0.05459480234662439, -0.010918960469324878, 0.030093720317895395, -0.844244384765625, 0.37242553710937504, 10.278226318359376
1520621016927762941, 0.05512743456464023, -0.009853696033293183, 0.031158984753927088, -0.858614501953125, 0.40475830078125, 10.239906005859375
1520621016932776941, 0.06018744063579079, -0.006391586616190172, 0.033555829734998405, -0.89334228515625, 0.44307861328125003, 10.18601806640625
1520621016937793941, 0.06604639503396512, -0.00825579937924564, 0.03568635860706179, -0.91729248046875, 0.43828857421875, 10.187215576171875
1520621016942809941, 0.07030745277809189, -0.007456851052221868, 0.03595267471606972, -0.944835205078125, 0.417930908203125, 10.172845458984375
1520621016947824941, 0.0782969360483296, -0.007190534943213944, 0.037816887479125184, -0.9675878906250001, 0.40236328125000004, 10.223140869140625
1520621016952839941, 0.08761799986360694, -0.005858954398174325, 0.0402137324601965, -0.9328601074218751, 0.365240478515625, 10.218350830078126
1520621016957854941, 0.0950748509158288, -0.0007989483270237715, 0.04154531300523612, -0.920885009765625, 0.36164794921875004, 10.218350830078126
1520621016962871941, 0.10040117309598728, 0.0029294771990871623, 0.04447479020432328, -0.959205322265625, 0.367635498046875, 10.219548339843751
1520621016967891941, 0.10812434025721708, 0.0055926382891664005, 0.047404267403410444, -0.9436376953125001, 0.338895263671875, 10.259066162109375
1520621016972902941, 0.11717908796348649, 0.006657902725198096, 0.04980111238448176, -0.8921447753906251, 0.28261230468750004, 10.266251220703126
1520621016977917941, 0.1241033067976925, 0.007456851052221868, 0.0513990090385293, -0.884959716796875, 0.281414794921875, 10.26984375
1520621016982932941, 0.13369068672197776, 0.007989483270237714, 0.05246427347456099, -0.8765771484375, 0.290994873046875, 10.233918457031251
1520621016987949941, 0.14141385388320757, 0.004261057744126781, 0.05033374460249761, -0.86939208984375, 0.298179931640625, 10.196795654296876
1520621016992964941, 0.14460964719130265, 0.0, 0.0468716351853946, -0.9029223632812501, 0.317340087890625, 10.230325927734375
1520621016997980941, 0.15233281435253243, -0.001597896654047543, 0.04340952576829159, -0.9113049316406251, 0.336500244140625, 10.287806396484376
1520621017002994941, 0.15686018820566713, -0.003195793308095086, 0.041278996896228194, -0.9196875, 0.3688330078125, 10.3225341796875
1520621017008010941, 0.15686018820566713, -0.00026631610900792384, 0.03648530693408557, -0.9053173828125001, 0.39038818359375, 10.357261962890625
1520621017013025941, 0.160854929840786, 0.001331580545039619, 0.03195793308095086, -0.8622070312500001, 0.44786865234375, 10.352471923828125
1520621017018041941, 0.1619201942768177, 0.004527373853134706, 0.03249056529896671, -0.8346643066406251, 0.484991455078125, 10.339299316406251
1520621017023057941, 0.16165387816780977, 0.008788431597261486, 0.034354778062022175, -0.81191162109375, 0.488583984375, 10.354866943359376
1520621017028073941, 0.16032229762277014, 0.013049489341388268, 0.03328951362599048, -0.7999365234375, 0.484991455078125, 10.390792236328126
1520621017033088941, 0.15899071707773052, 0.015712650431467506, 0.03728425526110934, -0.76880126953125, 0.488583984375, 10.383607177734376
1520621017038104941, 0.15366439489757205, 0.015712650431467506, 0.040480048569204424, -0.775986328125, 0.5053491210937501, 10.357261962890625
1520621017043120941, 0.15126754991650074, 0.018908443739562592, 0.045540054640354974, -0.8023315429687501, 0.437091064453125, 10.36324951171875
1520621017048135941, 0.1464738599543581, 0.01997370817559429, 0.04767058351241837, -0.8131091308593751, 0.46223876953125004, 10.421927490234376
1520621017053149941, 0.14247911831923926, 0.021305288720633905, 0.04793689962142629, -0.803529052734375, 0.427510986328125, 10.44947021484375
1520621017058166941, 0.13954964112015208, 0.021305288720633905, 0.046605319076386674, -0.8562194824218751, 0.384400634765625, 10.44228515625
1520621017063182941, 0.13448963504900155, 0.021038972611625982, 0.04420847409531536, -0.87897216796875, 0.39996826171875, 10.469827880859375
1520621017068196941, 0.12889699675983513, 0.017044230976507126, 0.03888215191515688, -0.844244384765625, 0.396375732421875, 10.460247802734376
1520621017073213941, 0.12170646181662119, 0.018908443739562592, 0.03488741028003802, -0.8574169921875, 0.38080810546875005, 10.491383056640625
1520621017078228941, 0.11478224298241517, 0.021305288720633905, 0.03142530086293501, -0.825084228515625, 0.37601806640625, 10.465037841796876
1520621017083243941, 0.108390656366225, 0.022370553156665602, 0.029561088099879545, -0.8155041503906251, 0.408350830078125, 10.419532470703125
1520621017088260941, 0.10093380531400313, 0.022636869265673525, 0.02636529479178446, -0.805924072265625, 0.42870849609375, 10.44468017578125
1520621017093274941, 0.0905474770626941, 0.022370553156665602, 0.023968449810713145, -0.7999365234375, 0.40356079101562503, 10.49258056640625
1520621017098290941, 0.08122641324741676, 0.022636869265673525, 0.023169501483689375, -0.795146484375, 0.41074584960937505, 10.448272705078125
1520621017103305941, 0.07456851052221868, 0.023702133701705222, 0.022370553156665602, -0.7963439941406251, 0.405955810546875, 10.453062744140626
1520621017108322941, 0.06631271114297303, 0.021837920938649755, 0.020240024284602212, -0.810714111328125, 0.41314086914062503, 10.455457763671875
1520621017113337941, 0.058855860090751166, 0.02423476591972107, 0.014913702104443736, -0.8190966796875, 0.434696044921875, 10.50216064453125
1520621017118353941, 0.04793689962142629, 0.024501082028728992, 0.009321063815277334, -0.827479248046875, 0.40236328125000004, 10.527308349609376
1520621017123368941, 0.040480048569204424, 0.02423476591972107, 0.002663161090079238, -0.805924072265625, 0.44068359375000005, 10.547666015625001
1520621017128384941, 0.03249056529896671, 0.025033714246744842, -0.002663161090079238, -0.765208740234375, 0.434696044921875, 10.563233642578126
1520621017133398941, 0.02423476591972107, 0.023968449810713145, -0.007989483270237714, -0.803529052734375, 0.415535888671875, 10.565628662109376
1520621017138414941, 0.017044230976507126, 0.026631610900792385, -0.012250541014364496, -0.781973876953125, 0.4358935546875, 10.51653076171875
1520621017143430941, 0.009853696033293183, 0.02689792700980031, -0.01731054708551505, -0.79754150390625, 0.434696044921875, 10.529703369140625
1520621017148446941, 0.004261057744126781, 0.03062635253591124, -0.02689792700980031, -0.846639404296875, 0.42391845703125003, 10.5045556640625
1520621017153461941, -0.002663161090079238, 0.036218990825077645, -0.031158984753927088, -0.8430468750000001, 0.43349853515625003, 10.532098388671876
1520621017158477941, -0.006391586616190172, 0.03941478413317273, -0.03595267471606972, -0.8370593261718751, 0.44068359375000005, 10.473420410156251
1520621017163493941, -0.010918960469324878, 0.04367584187729951, -0.04234426133225989, -0.8538244628906251, 0.42870849609375, 10.438692626953125
1520621017168508941, -0.015180018213451659, 0.050067428493489684, -0.046605319076386674, -0.85023193359375, 0.396375732421875, 10.441087646484375
1520621017173524941, -0.020240024284602212, 0.055926382891664, -0.048203215730434214, -0.901724853515625, 0.45265869140625004, 10.43989013671875
1520621017178539941, -0.021837920938649755, 0.06018744063579079, -0.05246427347456099, -0.8813671875000001, 0.45146118164062504, 10.405162353515626
1520621017183554941, -0.02210423704765768, 0.06285060172587002, -0.05486111845563231, -0.85502197265625, 0.40236328125000004, 10.465037841796876
1520621017188571941, -0.02210423704765768, 0.06578007892495719, -0.05406217012860854, -0.786763916015625, 0.446671142578125, 10.451865234375001
1520621017193586941, -0.02077265650261806, 0.06631271114297303, -0.05459480234662439, -0.7472460937500001, 0.48020141601562505, 10.431507568359375
1520621017198601941, -0.019707392066586366, 0.06657902725198096, -0.05033374460249761, -0.779578857421875, 0.5077441406250001, 10.412347412109375
1520621017203616941, -0.01731054708551505, 0.06524744670694134, -0.044741106313331204, -0.718505859375, 0.5125341796875, 10.381212158203125
1520621017208633941, -0.013582121559404116, 0.06285060172587002, -0.041278996896228194, -0.7831713867187501, 0.547261962890625, 10.397977294921876
1520621017213648941, -0.00825579937924564, 0.06205165339884625, -0.034354778062022175, -0.7747888183593751, 0.540076904296875, 10.414742431640626
1520621017218664941, -0.0021305288720633907, 0.06045375674479871, -0.02849582366384785, -0.822689208984375, 0.54366943359375, 10.3848046875
1520621017223679941, 0.00692421883420602, 0.05672533121868778, -0.024501082028728992, -0.833466796875, 0.5352868652343751, 10.3895947265625
1520621017228696941, 0.016245282649483356, 0.05566006678265608, -0.021571604829641832, -0.8729846191406251, 0.5604345703125, 10.38240966796875
1520621017233710941, 0.0234358175926973, 0.05672533121868778, -0.01997370817559429, -0.918489990234375, 0.568817138671875, 10.417137451171875
1520621017238726941, 0.029561088099879545, 0.05858954398174324, -0.017576863194522972, -0.9544152832031251, 0.54366943359375, 10.412347412109375
1520621017243741941, 0.035153726389045944, 0.06098638896281456, -0.01864212763055467, -0.9352551269531251, 0.542471923828125, 10.4566552734375
1520621017248756941, 0.04154531300523612, 0.0625842856168621, -0.020240024284602212, -0.9340576171875, 0.51013916015625, 10.473420410156251
1520621017253772941, 0.04767058351241837, 0.060720072853806636, -0.020506340393610135, -0.93645263671875, 0.501756591796875, 10.43989013671875
1520621017258787941, 0.05193164125654515, 0.06018744063579079, -0.019174759848570515, -0.9304650878906251, 0.52929931640625, 10.388397216796875
1520621017263803941, 0.05432848623761646, 0.05725796343670363, -0.021837920938649755, -0.890947265625, 0.5125341796875, 10.465037841796876
1520621017268820941, 0.05725796343670363, 0.05539375067364816, -0.020240024284602212, -0.841849365234375, 0.4646337890625, 10.5141357421875
1520621017273835941, 0.05965480841777494, 0.053529537910592694, -0.018109495412538822, -0.85502197265625, 0.494571533203125, 10.539283447265625
1520621017278850941, 0.05858954398174324, 0.049002164057457984, -0.018375811521546746, -0.8705895996093751, 0.523311767578125, 10.55964111328125
1520621017283865941, 0.05965480841777494, 0.04527373853134705, -0.014913702104443736, -0.9053173828125001, 0.532891845703125, 10.551258544921875
1520621017288881941, 0.056192699000671927, 0.04154531300523612, -0.014913702104443736, -0.9304650878906251, 0.5352868652343751, 10.596763916015625
1520621017293900941, 0.0513990090385293, 0.040480048569204424, -0.01597896654047543, -0.978365478515625, 0.51492919921875, 10.599158935546875
1520621017298913941, 0.048203215730434214, 0.03888215191515688, -0.014913702104443736, -0.996328125, 0.51013916015625, 10.62670166015625
1520621017303927941, 0.04181162911424404, 0.043942157986307434, -0.016777914867499202, -0.9604028320312501, 0.496966552734375, 10.63388671875
1520621017308944941, 0.0346210941710301, 0.04607268685837083, -0.017843179303530896, -0.948427734375, 0.47181884765625004, 10.615924072265626
1520621017313959941, 0.025832662573768612, 0.05033374460249761, -0.017044230976507126, -1.00830322265625, 0.46343627929687503, 10.623109130859376
1520621017318975941, 0.015180018213451659, 0.05645901510967986, -0.018109495412538822, -0.9735754394531251, 0.449066162109375, 10.614726562500001
1520621017323990941, 0.005858954398174325, 0.06045375674479871, -0.018375811521546746, -0.961600341796875, 0.43110351562500004, 10.600356445312501
1520621017329005941, -0.0023968449810713144, 0.0625842856168621, -0.01651159875849128, -0.968785400390625, 0.458646240234375, 10.547666015625001
1520621017334020941, -0.01038632825130903, 0.06737797557900473, -0.01171790879634865, -0.9843530273437501, 0.46702880859375, 10.556048583984376
1520621017339037941, -0.019174759848570515, 0.07057376888709982, -0.006657902725198096, -0.966390380859375, 0.48379394531250003, 10.49737060546875
1520621017344052941, -0.02556634646476069, 0.0737695621951949, -0.001864212763055467, -0.9460327148437501, 0.49337402343750003, 10.528505859375
1520621017349067941, -0.03222424918995878, 0.07803061993932169, 0.003994741635118857, -0.9867480468750001, 0.487386474609375, 10.515333251953125
1520621017354082941, -0.03755057137011726, 0.0860201032095594, 0.006391586616190172, -0.99393310546875, 0.47062133789062505, 10.427915039062501
1520621017359098941, -0.04340952576829159, 0.08921589651765449, 0.009853696033293183, -1.0011181640625, 0.494571533203125, 10.423125
1520621017364115941, -0.04793689962142629, 0.09108010928070995, 0.011451592687340724, -1.044228515625, 0.48379394531250003, 10.462642822265625
1520621017369130941, -0.05193164125654515, 0.0926780059347575, 0.013049489341388268, -1.044228515625, 0.487386474609375, 10.441087646484375
1520621017374144941, -0.055926382891664, 0.0916127414987258, 0.013582121559404116, -1.0023156738281251, 0.5029541015625, 10.486593017578125
1520621017379162941, -0.05912217619975909, 0.09241168982574957, 0.017044230976507126, -1.0023156738281251, 0.46702880859375, 10.469827880859375
1520621017384175941, -0.060720072853806636, 0.0926780059347575, 0.01997370817559429, -0.9975256347656251, 0.49217651367187504, 10.4758154296875
1520621017389192941, -0.060720072853806636, 0.08868326429963864, 0.025033714246744842, -1.0238708496093751, 0.511336669921875, 10.46384033203125
1520621017394208941, -0.05992112452678287, 0.08761799986360694, 0.028762139772855775, -1.044228515625, 0.5376818847656251, 10.487790527343751
1520621017399224941, -0.06311691783487795, 0.08362325822848808, 0.03302319751698256, -1.038240966796875, 0.559237060546875, 10.473420410156251
1520621017404238941, -0.06338323394388587, 0.07936220048436131, 0.04101268078722027, -1.005908203125, 0.552052001953125, 10.500963134765625
1520621017409254941, -0.06418218227090965, 0.07297061386817114, 0.044741106313331204, -1.01309326171875, 0.536484375, 10.4853955078125
1520621017414270941, -0.06498113059793342, 0.06791060779702057, 0.050866376820513454, -0.9903405761718751, 0.5412744140625, 10.43989013671875
1520621017419286941, -0.06471481448892549, 0.06098638896281456, 0.05965480841777494, -0.97477294921875, 0.511336669921875, 10.44228515625
1520621017424301941, -0.06444849837991756, 0.05486111845563231, 0.06524744670694134, -1.00351318359375, 0.49337402343750003, 10.460247802734376
1520621017429317941, -0.06285060172587002, 0.05113269292952138, 0.07057376888709982, -1.0789562988281252, 0.511336669921875, 10.455457763671875
1520621017434331941, -0.06524744670694134, 0.04420847409531536, 0.07669903939428206, -1.107696533203125, 0.499361572265625, 10.393187255859376
1520621017439348941, -0.06418218227090965, 0.04154531300523612, 0.08202536157444054, -1.06099365234375, 0.50055908203125, 10.405162353515626
1520621017444364941, -0.06578007892495719, 0.03808320358813311, 0.08708536764559109, -1.09452392578125, 0.49337402343750003, 10.414742431640626
1520621017449378941, -0.06657902725198096, 0.03302319751698256, 0.09134642538971788, -1.1136840820312501, 0.501756591796875, 10.45426025390625
1520621017454395941, -0.06897587223305228, 0.02982740420888747, 0.09400958647979711, -1.0753637695312501, 0.48379394531250003, 10.45426025390625
1520621017459410941, -0.06844324001503643, 0.0290284558818637, 0.09614011535186051, -1.09931396484375, 0.44786865234375, 10.445877685546876
1520621017464426941, -0.06711165946999681, 0.027963191445832, 0.10199906975003482, -1.119671630859375, 0.389190673828125, 10.431507568359375
1520621017469440941, -0.0681769239060285, 0.023968449810713145, 0.108390656366225, -1.13763427734375, 0.350870361328125, 10.40396484375
1520621017474456941, -0.0692421883420602, 0.021837920938649755, 0.1105211852382884, -1.14242431640625, 0.34368530273437503, 10.40156982421875
1520621017479472941, -0.06844324001503643, 0.021305288720633905, 0.11424961076439932, -1.131646728515625, 0.28380981445312503, 10.386002197265626
1520621017484487941, -0.06791060779702057, 0.020506340393610135, 0.11478224298241517, -1.14242431640625, 0.25147705078125, 10.409952392578125
1520621017489503941, -0.06711165946999681, 0.018908443739562592, 0.11824435239951818, -1.174757080078125, 0.28261230468750004, 10.420729980468751
1520621017494519941, -0.0681769239060285, 0.018908443739562592, 0.12223909403463704, -1.1388317871093752, 0.29937744140625, 10.400372314453126
1520621017499534941, -0.06657902725198096, 0.01651159875849128, 0.12197277792562912, -1.1220666503906251, 0.319735107421875, 10.362052001953126
1520621017504550941, -0.06578007892495719, 0.01731054708551505, 0.12490225512471628, -1.11847412109375, 0.38080810546875005, 10.378817138671875
1520621017509565941, -0.06178533728983833, 0.016245282649483356, 0.12703278399677967, -1.114881591796875, 0.41314086914062503, 10.38240966796875
1520621017514580941, -0.06018744063579079, 0.013049489341388268, 0.12570120345174005, -1.09931396484375, 0.43230102539062504, 10.421927490234376
1520621017519596941, -0.056192699000671927, 0.011451592687340724, 0.12250541014364497, -1.090931396484375, 0.44068359375000005, 10.40156982421875
1520621017524612941, -0.05459480234662439, 0.007456851052221868, 0.1195759329445578, -1.120869140625, 0.449066162109375, 10.436297607421876
1520621017529627941, -0.05060006071150553, 0.005060006071150553, 0.11824435239951818, -1.088536376953125, 0.47660888671875, 10.438692626953125
1520621017534642941, -0.04633900296737875, 0.005060006071150553, 0.11824435239951818, -1.0394384765625, 0.47660888671875, 10.455457763671875
1520621017539658941, -0.04420847409531536, 0.00692421883420602, 0.11851066850852611, -1.005908203125, 0.475411376953125, 10.406359863281251
1520621017544674941, -0.042077945223251964, 0.00692421883420602, 0.11797803629051026, -1.028660888671875, 0.504151611328125, 10.3704345703125
1520621017549689941, -0.03808320358813311, 0.006125270507182248, 0.11851066850852611, -1.025068359375, 0.5077441406250001, 10.393187255859376
1520621017554705941, -0.030892668644919165, 0.005858954398174325, 0.12250541014364497, -1.0202783203125, 0.51013916015625, 10.402767333984375
1520621017559721941, -0.030892668644919165, 0.003994741635118857, 0.12809804843281136, -0.985550537109375, 0.5221142578125, 10.3848046875
1520621017564737941, -0.027430559227816155, 0.00346210941710301, 0.13448963504900155, -0.987945556640625, 0.51492919921875, 10.435100097656251
1520621017569752941, -0.02290318537468145, 0.0010652644360316954, 0.14061490555618378, -1.0298583984375, 0.5269042968750001, 10.500963134765625
1520621017574767941, -0.021038972611625982, -0.0005326322180158477, 0.14620754384535017, -1.047821044921875, 0.5352868652343751, 10.522518310546875
1520621017579783941, -0.018109495412538822, -0.003195793308095086, 0.1510012338074928, -1.004710693359375, 0.5376818847656251, 10.532098388671876
1520621017584798941, -0.017044230976507126, -0.005060006071150553, 0.15606123987864337, -0.978365478515625, 0.511336669921875, 10.4853955078125
1520621017589814941, -0.015712650431467506, -0.005858954398174325, 0.16245282649483353, -1.005908203125, 0.513731689453125, 10.511740722656251
1520621017594829941, -0.012250541014364496, -0.009321063815277334, 0.16724651645697616, -1.00830322265625, 0.49576904296875, 10.4853955078125
1520621017599844941, -0.009853696033293183, -0.01384843766841204, 0.17124125809209503, -1.014290771484375, 0.48618896484375, 10.481802978515626
1520621017604861941, -0.007456851052221868, -0.016777914867499202, 0.17630126416324557, -1.014290771484375, 0.43230102539062504, 10.5045556640625
1520621017609876941, -0.007989483270237714, -0.021305288720633905, 0.18056232190737237, -0.996328125, 0.40356079101562503, 10.431507568359375
1520621017614892941, -0.006657902725198096, -0.023169501483689375, 0.18375811521546745, -0.987945556640625, 0.39158569335937504, 10.451865234375001
1520621017619909941, -0.003994741635118857, -0.02290318537468145, 0.18961706961364178, -0.9627978515625001, 0.39517822265625, 10.391989746093751
1520621017624923941, 0.001597896654047543, -0.025033714246744842, 0.19520970790280817, -0.9244775390625001, 0.389190673828125, 10.3800146484375
1520621017629939941, 0.003728425526110934, -0.03062635253591124, 0.20266655895503005, -0.93166259765625, 0.39278320312500004, 10.356064453125
1520621017634953941, 0.0055926382891664005, -0.03408846195301425, 0.2111886744432836, -0.9520202636718751, 0.40475830078125, 10.353669433593751
1520621017639970941, 0.013315805450396193, -0.037816887479125184, 0.21491709996939454, -0.9220825195312501, 0.42391845703125003, 10.357261962890625
1520621017644986941, 0.015712650431467506, -0.0402137324601965, 0.21758026105947378, -0.9077124023437501, 0.40475830078125, 10.368039550781251
1520621017649999941, 0.023169501483689375, -0.04367584187729951, 0.223705531566656, -0.928070068359375, 0.39158569335937504, 10.376422119140626
1520621017655017941, 0.030093720317895395, -0.04633900296737875, 0.22636869265673526, -0.978365478515625, 0.39517822265625, 10.3512744140625
1520621017660031941, 0.03408846195301425, -0.045540054640354974, 0.2245044798936798, -0.999920654296875, 0.3592529296875, 10.375224609375001
1520621017665047941, 0.037816887479125184, -0.04367584187729951, 0.22157500269459263, -0.999920654296875, 0.33290771484375004, 10.3512744140625
1520621017670063941, 0.04340952576829159, -0.03994741635118858, 0.21811289327748962, -1.031055908203125, 0.336500244140625, 10.369237060546876
1520621017675078941, 0.04793689962142629, -0.03488741028003802, 0.2122539388793153, -0.9951306152343751, 0.3496728515625, 10.413544921875001
1520621017680094941, 0.05113269292952138, -0.031691616971942935, 0.20692761669915682, -0.9759704589843751, 0.324525146484375, 10.352471923828125
1520621017685110941, 0.05299690569257685, -0.02769687533682408, 0.20612866837213306, -0.9268725585937501, 0.307760009765625, 10.37282958984375
1520621017690125941, 0.05645901510967986, -0.02476739813773692, 0.2055960361541172, -0.904119873046875, 0.314945068359375, 10.397977294921876
1520621017695139941, 0.058855860090751166, -0.020506340393610135, 0.20639498448114096, -0.863404541015625, 0.33171020507812504, 10.36324951171875
1520621017700155941, 0.05912217619975909, -0.017044230976507126, 0.2119876227703074, -0.844244384765625, 0.32572265625, 10.359656982421875
1520621017705171941, 0.058855860090751166, -0.014913702104443736, 0.2178465771684817, -0.8382568359375, 0.290994873046875, 10.38719970703125
1520621017710188941, 0.06018744063579079, -0.011984224905356573, 0.22397184767566394, -0.7723937988281251, 0.310155029296875, 10.42552001953125
1520621017715203941, 0.060720072853806636, -0.01171790879634865, 0.23329291149094128, -0.750838623046875, 0.335302734375, 10.43989013671875
1520621017720217941, 0.06285060172587002, -0.011451592687340724, 0.24394555585125824, -0.741258544921875, 0.3305126953125, 10.484197998046875
1520621017725234941, 0.062317969507854176, -0.010120012142301106, 0.2545982002115752, -0.7711962890625, 0.3592529296875, 10.467432861328126
1520621017730249941, 0.06178533728983833, -0.01171790879634865, 0.26098978682776536, -0.786763916015625, 0.336500244140625, 10.462642822265625
1520621017735265941, 0.0625842856168621, -0.011185276578332801, 0.26631610900792385, -0.8095166015625, 0.348475341796875, 10.493778076171875
1520621017740281941, 0.06418218227090965, -0.012250541014364496, 0.2735066439511378, -0.852626953125, 0.33290771484375004, 10.47821044921875
1520621017745296941, 0.06657902725198096, -0.010918960469324878, 0.2764361211502249, -0.8622070312500001, 0.35326538085937503, 10.515333251953125
1520621017750311941, 0.06657902725198096, -0.009587379924285258, 0.2780340178042725, -0.825084228515625, 0.32572265625, 10.49737060546875
1520621017755328941, 0.06684534336098888, -0.010918960469324878, 0.28096349500335965, -0.7879614257812501, 0.355660400390625, 10.510543212890626
1520621017760342941, 0.0681769239060285, -0.009587379924285258, 0.28415928831145476, -0.808319091796875, 0.36284545898437504, 10.473420410156251
1520621017765358941, 0.06737797557900473, -0.00692421883420602, 0.28975192660062116, -0.822689208984375, 0.354462890625, 10.46384033203125
1520621017770374941, 0.06657902725198096, -0.003195793308095086, 0.2948119326717717, -0.8023315429687501, 0.34248779296875004, 10.427915039062501
1520621017775389941, 0.0692421883420602, -0.0010652644360316954, 0.2961435132168113, -0.825084228515625, 0.324525146484375, 10.520123291015626
1520621017780405941, 0.06791060779702057, 0.0029294771990871623, 0.3004045709609381, -0.858614501953125, 0.310155029296875, 10.551258544921875
1520621017785420941, 0.06764429168801266, 0.003728425526110934, 0.3057308931410966, -0.8454418945312501, 0.29458740234375, 10.56443115234375
1520621017790435941, 0.06764429168801266, 0.004527373853134706, 0.3062635253591124, -0.85023193359375, 0.27542724609375, 10.572813720703126
1520621017795452941, 0.06444849837991756, 0.005326322180158476, 0.3057308931410966, -0.8514294433593751, 0.267044677734375, 10.568023681640625
1520621017800466941, 0.06285060172587002, 0.005858954398174325, 0.304132996487049, -0.87897216796875, 0.27063720703125, 10.57401123046875
1520621017805483941, 0.06285060172587002, 0.006391586616190172, 0.30120351928796185, -0.9220825195312501, 0.267044677734375, 10.618319091796875
1520621017810498941, 0.05672533121868778, 0.007456851052221868, 0.2961435132168113, -0.8969348144531251, 0.25626708984375, 10.607541503906251
1520621017815513941, 0.05219795736555307, 0.00825579937924564, 0.2894856104916132, -0.9460327148437501, 0.204774169921875, 10.565628662109376
1520621017820529941, 0.048203215730434214, 0.00825579937924564, 0.2814961272213755, -0.9819580078125001, 0.142503662109375, 10.627899169921875
1520621017825545941, 0.04287689355027574, 0.009587379924285258, 0.2748382244961774, -0.983155517578125, 0.10298583984375001, 10.61712158203125
1520621017830561941, 0.03568635860706179, 0.01171790879634865, 0.2676476895529635, -0.9520202636718751, 0.049097900390625004, 10.600356445312501
1520621017835576941, 0.028762139772855775, 0.01731054708551505, 0.25752767741066235, -0.9843530273437501, 0.044307861328125, 10.591973876953126
1520621017840592941, 0.022370553156665602, 0.025300030355752765, 0.24527713639629786, -0.9951306152343751, -0.003592529296875, 10.605146484375
1520621017845607941, 0.012516857123372421, 0.028762139772855775, 0.23648870479903636, -0.9627978515625001, -0.025147705078125002, 10.631491699218751
1520621017850622941, 0.00346210941710301, 0.031158984753927088, 0.22743395709276695, -0.9568103027343751, -0.0383203125, 10.685379638671876
1520621017855638941, -0.004793689962142629, 0.03222424918995878, 0.22077605436756886, -0.961600341796875, -0.00239501953125, 10.6482568359375
1520621017860654941, -0.01038632825130903, 0.03382214584400633, 0.21172130666129946, -0.918489990234375, 0.045505371093750004, 10.65544189453125
1520621017865669941, -0.017576863194522972, 0.036218990825077645, 0.20479708782709344, -0.901724853515625, 0.085023193359375, 10.673404541015625
1520621017870685941, -0.0234358175926973, 0.039681100242180654, 0.19787286899288742, -0.920885009765625, 0.168848876953125, 10.624306640625
1520621017875701941, -0.028762139772855775, 0.04234426133225989, 0.19174759848570516, -0.8669970703125001, 0.199984130859375, 10.579998779296876
1520621017880716941, -0.033555829734998405, 0.04713795129440252, 0.18775285685058632, -0.81191162109375, 0.21794677734375, 10.577603759765626
1520621017885731941, -0.03808320358813311, 0.05193164125654515, 0.18375811521546745, -0.803529052734375, 0.27422973632812503, 10.554851074218751
1520621017890748941, -0.04287689355027574, 0.05512743456464023, 0.17896442525332482, -0.789158935546875, 0.298179931640625, 10.566826171875
1520621017895762941, -0.04340952576829159, 0.05992112452678287, 0.17470336750919804, -0.786763916015625, 0.28021728515625, 10.584788818359376
1520621017900776941, -0.04447479020432328, 0.06311691783487795, 0.17070862587407917, -0.748443603515625, 0.264649658203125, 10.623109130859376
1520621017905794941, -0.0468716351853946, 0.06338323394388587, 0.16804546478399995, -0.724493408203125, 0.259859619140625, 10.651849365234376
1520621017910810941, -0.050067428493489684, 0.06125270507182248, 0.16591493591193654, -0.710123291015625, 0.26225463867187504, 10.6195166015625
1520621017915825941, -0.051665325147537224, 0.05779059565471947, 0.16458335536689694, -0.72090087890625, 0.28740234375, 10.623109130859376
1520621017920841941, -0.05432848623761646, 0.05725796343670363, 0.16458335536689694, -0.718505859375, 0.30895751953125, 10.637479248046876
1520621017925857941, -0.05566006678265608, 0.05379585401960062, 0.1653823036939207, -0.731678466796875, 0.35326538085937503, 10.591973876953126
1520621017930872941, -0.05566006678265608, 0.05246427347456099, 0.16698020034796823, -0.7723937988281251, 0.3688330078125, 10.611134033203125
1520621017935886941, -0.05539375067364816, 0.05033374460249761, 0.16884441311102372, -0.7855664062500001, 0.39158569335937504, 10.6195166015625
1520621017940902941, -0.056192699000671927, 0.048203215730434214, 0.16964336143804748, -0.810714111328125, 0.42272094726562504, 10.631491699218751
1520621017945920941, -0.05645901510967986, 0.04447479020432328, 0.17124125809209503, -0.825084228515625, 0.456251220703125, 10.59796142578125
1520621017950933941, -0.056192699000671927, 0.04527373853134705, 0.17390441918217428, -0.86939208984375, 0.45744873046875, 10.58359130859375
1520621017955949941, -0.05779059565471947, 0.04181162911424404, 0.17363810307316635, -0.8861572265625001, 0.44188110351562504, 10.562036132812501
1520621017960965941, -0.05752427954571155, 0.03648530693408557, 0.17337178696415842, -0.87897216796875, 0.4167333984375, 10.606343994140625
1520621017965980941, -0.056192699000671927, 0.031691616971942935, 0.17230652252812673, -0.925675048828125, 0.40116577148437504, 10.568023681640625
1520621017970996941, -0.0569916473276957, 0.029561088099879545, 0.17363810307316635, -0.9268725585937501, 0.40236328125000004, 10.607541503906251
1520621017976011941, -0.05779059565471947, 0.02822950755483993, 0.17417073529118218, -0.8753796386718751, 0.38080810546875005, 10.57401123046875
1520621017981025941, -0.05938849230876701, 0.02423476591972107, 0.17417073529118218, -0.8705895996093751, 0.38320312500000003, 10.593171386718751
1520621017986043941, -0.06018744063579079, 0.01997370817559429, 0.17683389638126143, -0.87418212890625, 0.38080810546875005, 10.59556640625
1520621017991058941, -0.06125270507182248, 0.014114753777419964, 0.17949705747134068, -0.83107177734375, 0.3448828125, 10.6099365234375
1520621017996074941, -0.061519021180830406, 0.003728425526110934, 0.18508969576050707, -0.810714111328125, 0.377215576171875, 10.647059326171876
1520621018001088941, -0.060720072853806636, -0.008788431597261486, 0.19174759848570516, -0.8131091308593751, 0.38200561523437504, 10.623109130859376
1520621018006105941, -0.058855860090751166, -0.01651159875849128, 0.19840550121090325, -0.75922119140625, 0.415535888671875, 10.575208740234375
1520621018011120941, -0.05645901510967986, -0.024501082028728992, 0.20612866837213306, -0.8190966796875, 0.4550537109375, 10.593171386718751
1520621018016136941, -0.05406217012860854, -0.03488741028003802, 0.21624868051443416, -0.8646020507812501, 0.4263134765625, 10.53090087890625
1520621018021151941, -0.04926848016646591, -0.042077945223251964, 0.21971078993153717, -0.89813232421875, 0.3975732421875, 10.515333251953125
1520621018026168941, -0.04420847409531536, -0.043942157986307434, 0.2245044798936798, -0.9268725585937501, 0.3688330078125, 10.50695068359375
1520621018031181941, -0.03728425526110934, -0.04287689355027574, 0.2266350087657432, -0.9412426757812501, 0.3688330078125, 10.5141357421875
1520621018036198941, -0.030093720317895395, -0.037816887479125184, 0.2245044798936798, -0.985550537109375, 0.348475341796875, 10.496173095703126
1520621018041214941, -0.02423476591972107, -0.035153726389045944, 0.223705531566656, -0.968785400390625, 0.300574951171875, 10.429112548828126
1520621018046230941, -0.017576863194522972, -0.033555829734998405, 0.2199771060405451, -0.95082275390625, 0.267044677734375, 10.469827880859375
1520621018051244941, -0.008522115488253563, -0.033555829734998405, 0.21944447382252924, -0.947230224609375, 0.2347119140625, 10.508148193359375
1520621018056261941, -0.004527373853134706, -0.034354778062022175, 0.2178465771684817, -0.9029223632812501, 0.25626708984375, 10.51653076171875
1520621018061275941, 0.004527373853134706, -0.039681100242180654, 0.21278657109733115, -0.87897216796875, 0.24548950195312502, 10.546468505859375
1520621018066291941, 0.009853696033293183, -0.04607268685837083, 0.21305288720633908, -0.8765771484375, 0.24069946289062502, 10.534493408203126
1520621018071307941, 0.015712650431467506, -0.05060006071150553, 0.2146507838603866, -0.9029223632812501, 0.29458740234375, 10.5380859375
1520621018076323941, 0.023968449810713145, -0.0580569117637274, 0.22077605436756886, -0.8753796386718751, 0.317340087890625, 10.474617919921876
1520621018081337941, 0.032756881407974635, -0.05912217619975909, 0.22423816378467187, -0.8622070312500001, 0.338895263671875, 10.419532470703125
1520621018086354941, 0.04101268078722027, -0.06125270507182248, 0.2300971181828462, -0.825084228515625, 0.307760009765625, 10.438692626953125
1520621018091368941, 0.04767058351241837, -0.06098638896281456, 0.23995081421613937, -0.8729846191406251, 0.298179931640625, 10.402767333984375
1520621018096384941, 0.05832322787273532, -0.06045375674479871, 0.24740766526836125, -0.8777746582031251, 0.329315185546875, 10.339299316406251
1520621018101398941, 0.06977482056007604, -0.05645901510967986, 0.25566346464760686, -0.8753796386718751, 0.32213012695312504, 10.36564453125
1520621018106416941, 0.07882956826634546, -0.055926382891664, 0.2625876834818129, -0.8753796386718751, 0.3065625, 10.285411376953126
1520621018111431941, 0.08841694819063071, -0.05486111845563231, 0.2681803217709793, -0.9376501464843751, 0.305364990234375, 10.286608886718751
1520621018116447941, 0.09880327644193974, -0.05432848623761646, 0.2729740117331219, -0.9795629882812501, 0.25387207031250003, 10.314151611328125
1520621018121462941, 0.10679275971217746, -0.050067428493489684, 0.2801645466763359, -1.031055908203125, 0.21555175781250002, 10.32971923828125
1520621018126477941, 0.11638013963646272, -0.04500742242233913, 0.28309402387542304, -1.01788330078125, 0.18202148437500001, 10.357261962890625
1520621018131492941, 0.1272991001057876, -0.0402137324601965, 0.28069717889435175, -1.0346484375, 0.19040405273437502, 10.4183349609375
1520621018136509941, 0.1352885833760253, -0.034354778062022175, 0.28069717889435175, -1.076561279296875, 0.21315673828125, 10.4087548828125
1520621018141524941, 0.14114753777419964, -0.03062635253591124, 0.27989823056732793, -1.1005114746093752, 0.23590942382812502, 10.438692626953125
1520621018146540941, 0.14887070493542942, -0.024501082028728992, 0.2822950755483993, -0.99872314453125, 0.238304443359375, 10.4614453125
1520621018151555941, 0.15446334322459582, -0.018109495412538822, 0.2814961272213755, -0.9975256347656251, 0.264649658203125, 10.488988037109376
1520621018156571941, 0.1600559815137622, -0.015712650431467506, 0.28469192052947057, -0.9604028320312501, 0.264649658203125, 10.448272705078125
1520621018161586941, 0.16564861980292864, -0.011185276578332801, 0.2905508749276449, -0.9627978515625001, 0.3065625, 10.488988037109376
1520621018166603941, 0.1720402064191188, -0.012783173232380344, 0.2966761454348272, -1.0071057128906251, 0.32572265625, 10.4758154296875
1520621018171618941, 0.17496968361820597, -0.012516857123372421, 0.3014698353969698, -0.99872314453125, 0.33769775390625, 10.469827880859375
1520621018176633941, 0.17896442525332482, -0.013315805450396193, 0.304132996487049, -1.00830322265625, 0.32332763671875003, 10.534493408203126
1520621018181648941, 0.1832254829974516, -0.012516857123372421, 0.3094593186672075, -1.02267333984375, 0.29458740234375, 10.518925781250001
1520621018186665941, 0.18775285685058632, -0.01651159875849128, 0.31531827306538185, -0.99393310546875, 0.296982421875, 10.575208740234375
1520621018191680941, 0.18855180517761008, -0.02077265650261806, 0.3227751241176037, -1.014290771484375, 0.31255004882812504, 10.66981201171875
1520621018196695941, 0.19121496626768933, -0.02689792700980031, 0.32650354964371464, -1.057401123046875, 0.3305126953125, 10.642269287109375
1520621018201711941, 0.1944107595757844, -0.03755057137011726, 0.3307646073878414, -0.9903405761718751, 0.305364990234375, 10.671009521484375
1520621018206727941, 0.1989381334289191, -0.044741106313331204, 0.33768882622204743, -0.9951306152343751, 0.329315185546875, 10.702144775390625
1520621018211742941, 0.20053603008296664, -0.051665325147537224, 0.3400856712031187, -1.02267333984375, 0.346080322265625, 10.700947265625
1520621018216758941, 0.20080234619197457, -0.06178533728983833, 0.34461304505625345, -1.043031005859375, 0.336500244140625, 10.78956298828125
1520621018221773941, 0.2021339267370142, -0.06711165946999681, 0.3488741028003802, -1.0777587890625, 0.33769775390625, 10.831475830078126
1520621018226789941, 0.20719393280816475, -0.06977482056007604, 0.35127094778145157, -1.1064990234375, 0.295784912109375, 10.817105712890626
1520621018231804941, 0.21038972611625983, -0.07243798165015529, 0.35047199945442775, -1.1053015136718751, 0.29937744140625, 10.817105712890626
1520621018236820941, 0.21092235833427567, -0.07057376888709982, 0.3515372638904595, -1.098116455078125, 0.31255004882812504, 10.8494384765625
1520621018241836941, 0.2122539388793153, -0.07190534943213944, 0.3542004249805387, -1.1064990234375, 0.25387207031250003, 10.893746337890626
1520621018246851941, 0.21385183553336284, -0.07243798165015529, 0.35659726996161, -1.090931396484375, 0.271834716796875, 10.891351318359376
1520621018251866941, 0.21438446775137868, -0.07323692997717905, 0.3587277988336734, -1.16158447265625, 0.290994873046875, 10.854228515625001
1520621018256882941, 0.2122539388793153, -0.07643272328527415, 0.3584614827246655, -1.178349609375, 0.30416748046875003, 10.885363769531251
1520621018261897941, 0.2111886744432836, -0.08016114881138507, 0.3608583277057368, -1.1472143554687502, 0.33769775390625, 10.892548828125001
1520621018266912941, 0.2119876227703074, -0.08468852266451977, 0.3616572760327606, -1.12805419921875, 0.367635498046875, 10.93326416015625
1520621018271931941, 0.21038972611625983, -0.0860201032095594, 0.36272254046879226, -1.136436767578125, 0.37601806640625, 10.953621826171876
1520621018276944941, 0.20692761669915682, -0.0860201032095594, 0.3651193854498636, -1.21427490234375, 0.427510986328125, 10.973979492187501
1520621018281959941, 0.20293287506403795, -0.08815063208162278, 0.3653857015588715, -1.17595458984375, 0.44786865234375, 10.941646728515625
1520621018286976941, 0.2000033978649508, -0.08761799986360694, 0.3651193854498636, -1.1472143554687502, 0.47660888671875, 10.93326416015625
1520621018291991941, 0.19600865622983193, -0.08628641931856733, 0.36458675323184775, -1.1603869628906252, 0.525706787109375, 10.945239257812501
1520621018297006941, 0.19228023070372102, -0.08335694211948017, 0.36352148879581603, -1.189127197265625, 0.528101806640625, 10.905721435546875
1520621018302021941, 0.18722022463257046, -0.08175904546543261, 0.36352148879581603, -1.2034973144531251, 0.532891845703125, 10.94044921875
1520621018307038941, 0.18269285077943576, -0.08202536157444054, 0.36272254046879226, -1.208287353515625, 0.56282958984375, 10.893746337890626
1520621018312054941, 0.17923074136233275, -0.08309062601047223, 0.3597930632697051, -1.2118798828125001, 0.5544470214843751, 10.86620361328125
1520621018317068941, 0.17496968361820597, -0.08388957433749601, 0.35686358607061797, -1.16158447265625, 0.525706787109375, 10.934461669921875
1520621018322085941, 0.17044230976507124, -0.08388957433749601, 0.35766253439764173, -1.1436218261718751, 0.544866943359375, 10.870993652343751
1520621018327100941, 0.1653823036939207, -0.08282430990146432, 0.35792885050664963, -1.1651770019531251, 0.542471923828125, 10.90452392578125
1520621018332114941, 0.16112124594979393, -0.08175904546543261, 0.35606463774359415, -1.2070898437500002, 0.51971923828125, 10.921289062500001
1520621018337131941, 0.157392820423683, -0.08229167768344847, 0.3549993733075625, -1.2502001953125002, 0.49337402343750003, 10.885363769531251
1520621018342147941, 0.15126754991650074, -0.08255799379245639, 0.35366779276252286, -1.2933105468750001, 0.51971923828125, 10.951226806640626
1520621018347163941, 0.1454085955183264, -0.0814927293564247, 0.3510046316724436, -1.308878173828125, 0.47062133789062505, 10.903326416015625
1520621018352177941, 0.13688648003007287, -0.07909588437535338, 0.3451456772742693, -1.3651611328125002, 0.45265869140625004, 10.888956298828125
1520621018357193941, 0.1318264739589223, -0.07536745884924245, 0.3387540906580791, -1.390308837890625, 0.439486083984375, 10.936856689453126
1520621018362208941, 0.12250541014364497, -0.06897587223305228, 0.33236250404188894, -1.41545654296875, 0.38320312500000003, 10.876981201171876
1520621018367225941, 0.11265171411035178, -0.05858954398174324, 0.32357407244462744, -1.4322216796875, 0.37122802734375004, 10.89015380859375
1520621018372241941, 0.10199906975003482, -0.05326322180158477, 0.31531827306538185, -1.4130615234375001, 0.39398071289062503, 10.8590185546875
1520621018377255941, 0.09241168982574957, -0.047404267403410444, 0.3062635253591124, -1.4298266601562502, 0.365240478515625, 10.845845947265625
1520621018382270941, 0.08175904546543261, -0.040480048569204424, 0.2964098293258192, -1.4214440917968751, 0.3448828125, 10.831475830078126
1520621018387286941, 0.06977482056007604, -0.037017939152101415, 0.28868666216458944, -1.3915063476562501, 0.3592529296875, 10.85183349609375
1520621018392302941, 0.060720072853806636, -0.0346210941710301, 0.28309402387542304, -1.36037109375, 0.386795654296875, 10.835068359375
1520621018397318941, 0.051665325147537224, -0.03249056529896671, 0.2783003339132804, -1.34360595703125, 0.4167333984375, 10.848240966796876
1520621018402332941, 0.04101268078722027, -0.030892668644919165, 0.272707695624114, -1.34360595703125, 0.40954833984375, 10.861413574218751
1520621018407348941, 0.03302319751698256, -0.030093720317895395, 0.2679140056619714, -1.371148681640625, 0.39517822265625, 10.950029296875
1520621018412365941, 0.022636869265673525, -0.030093720317895395, 0.2636529479178446, -1.3352233886718752, 0.434696044921875, 10.93326416015625
1520621018417380941, 0.01597896654047543, -0.031691616971942935, 0.25859294184669407, -1.3400134277343752, 0.41433837890625, 10.92368408203125
1520621018422396941, 0.009321063815277334, -0.03382214584400633, 0.2532666196665356, -1.282532958984375, 0.42870849609375, 10.9356591796875
1520621018427411941, 0.001864212763055467, -0.03808320358813311, 0.2511360907944722, -1.28612548828125, 0.48379394531250003, 10.869796142578126
1520621018432425941, -0.004793689962142629, -0.04181162911424404, 0.2492718780314167, -1.2933105468750001, 0.5316943359375, 10.88057373046875
1520621018437442941, -0.010120012142301106, -0.04607268685837083, 0.2458097686143137, -1.3064831542968751, 0.5185217285156251, 10.893746337890626
1520621018442458941, -0.01731054708551505, -0.05113269292952138, 0.244744504178282, -1.3783337402343752, 0.5352868652343751, 10.892548828125001
1520621018447474941, -0.022636869265673525, -0.05512743456464023, 0.2402171303251473, -1.3998889160156252, 0.5185217285156251, 10.89494384765625
1520621018452488941, -0.02556634646476069, -0.05645901510967986, 0.2367550209080443, -1.4346166992187501, 0.504151611328125, 10.831475830078126
1520621018457504941, -0.03062635253591124, -0.05725796343670363, 0.2311623826188779, -1.49209716796875, 0.496966552734375, 10.809920654296876
1520621018462520941, -0.031691616971942935, -0.055926382891664, 0.2245044798936798, -1.505269775390625, 0.488583984375, 10.861413574218751
1520621018467536941, -0.03302319751698256, -0.05725796343670363, 0.21624868051443416, -1.4705419921875, 0.45385620117187503, 10.876981201171876
1520621018472551941, -0.03834951969714103, -0.05832322787273532, 0.20692761669915682, -1.4561718750000001, 0.44188110351562504, 10.83746337890625
1520621018477567941, -0.04101268078722027, -0.058855860090751166, 0.20186761062800626, -1.4322216796875, 0.45026367187500005, 10.84225341796875
1520621018482581941, -0.04261057744126781, -0.05965480841777494, 0.1954760240118161, -1.512454833984375, 0.444276123046875, 10.80393310546875
1520621018487598941, -0.04287689355027574, -0.0625842856168621, 0.19068233404967347, -1.47772705078125, 0.44786865234375, 10.7823779296875
1520621018492613941, -0.04181162911424404, -0.06098638896281456, 0.1866875924145546, -1.4861096191406251, 0.475411376953125, 10.751242675781251
1520621018497629941, -0.04287689355027574, -0.06045375674479871, 0.17949705747134068, -1.4801220703125, 0.415535888671875, 10.734477539062501
1520621018502643941, -0.04287689355027574, -0.05858954398174324, 0.1744370514001901, -1.512454833984375, 0.4167333984375, 10.7680078125
1520621018507659941, -0.04287689355027574, -0.05725796343670363, 0.1664475681299524, -1.5663427734375002, 0.41314086914062503, 10.815908203125
1520621018512674941, -0.0458063707493629, -0.058855860090751166, 0.15765913653269092, -1.565145263671875, 0.39278320312500004, 10.75603271484375
1520621018517690941, -0.04447479020432328, -0.06178533728983833, 0.14700649217237396, -1.5088623046875, 0.36643798828125, 10.711724853515626
1520621018522706941, -0.041278996896228194, -0.05992112452678287, 0.14008227333816795, -1.55197265625, 0.3448828125, 10.654244384765626
1520621018527722941, -0.04074636467821235, -0.05858954398174324, 0.13156015784991437, -1.5759228515625001, 0.319735107421875, 10.63628173828125
1520621018532736941, -0.0402137324601965, -0.05459480234662439, 0.12144014570761327, -1.61663818359375, 0.316142578125, 10.647059326171876
1520621018537752941, -0.04367584187729951, -0.05326322180158477, 0.1073253919301933, -1.6142431640625001, 0.28979736328125, 10.645861816406251
1520621018542768941, -0.042077945223251964, -0.050067428493489684, 0.09480853480682089, -1.648970947265625, 0.239501953125, 10.627899169921875
1520621018547785941, -0.04340952576829159, -0.04767058351241837, 0.08415589044650393, -1.629810791015625, 0.271834716796875, 10.66981201171875
1520621018552799941, -0.04527373853134705, -0.043942157986307434, 0.07350324608618698, -1.6262182617187502, 0.32811767578125, 10.67220703125
1520621018557816941, -0.047404267403410444, -0.041278996896228194, 0.06444849837991756, -1.627415771484375, 0.338895263671875, 10.663824462890625
1520621018562831941, -0.050067428493489684, -0.03728425526110934, 0.056192699000671927, -1.6262182617187502, 0.40116577148437504, 10.681787109375001
1520621018567846941, -0.05033374460249761, -0.03222424918995878, 0.050866376820513454, -1.593885498046875, 0.439486083984375, 10.681787109375001
1520621018572862941, -0.0513990090385293, -0.02822950755483993, 0.0468716351853946, -1.5495776367187502, 0.5077441406250001, 10.613529052734375
1520621018577877941, -0.05406217012860854, -0.025832662573768612, 0.04447479020432328, -1.52562744140625, 0.5269042968750001, 10.603948974609375
1520621018582892941, -0.055926382891664, -0.023169501483689375, 0.045540054640354974, -1.5196398925781252, 0.52929931640625, 10.589578857421875
1520621018587909941, -0.05672533121868778, -0.021305288720633905, 0.0468716351853946, -1.522034912109375, 0.5161267089843751, 10.579998779296876
1520621018592924941, -0.06125270507182248, -0.0234358175926973, 0.048203215730434214, -1.52562744140625, 0.48618896484375, 10.606343994140625
1520621018597940941, -0.05992112452678287, -0.02822950755483993, 0.04713795129440252, -1.5531701660156252, 0.43110351562500004, 10.61712158203125
1520621018602954941, -0.058855860090751166, -0.035153726389045944, 0.043942157986307434, -1.561552734375, 0.40116577148437504, 10.562036132812501
1520621018607971941, -0.06178533728983833, -0.04074636467821235, 0.03994741635118858, -1.6046630859375002, 0.377215576171875, 10.570418701171876
1520621018612985941, -0.0625842856168621, -0.04261057744126781, 0.0346210941710301, -1.65495849609375, 0.33290771484375004, 10.541678466796876
1520621018618002941, -0.06125270507182248, -0.043143209659283664, 0.023702133701705222, -1.7196240234375, 0.279019775390625, 10.563233642578126
1520621018623017941, -0.06471481448892549, -0.04713795129440252, 0.011984224905356573, -1.7339941406250001, 0.264649658203125, 10.600356445312501
1520621018628033941, -0.06551376281594927, -0.044741106313331204, 0.0, -1.708846435546875, 0.277822265625, 10.6099365234375
1520621018633048941, -0.06684534336098888, -0.042077945223251964, -0.009587379924285258, -1.6429833984375002, 0.30296997070312504, 10.582393798828125
1520621018638064941, -0.06764429168801266, -0.03994741635118858, -0.01464738599543581, -1.6130456542968752, 0.329315185546875, 10.5524560546875
1520621018643080941, -0.07084008499610774, -0.03994741635118858, -0.021305288720633905, -1.64058837890625, 0.377215576171875, 10.487790527343751
1520621018648096941, -0.07297061386817114, -0.042077945223251964, -0.024501082028728992, -1.615440673828125, 0.38200561523437504, 10.438692626953125
1520621018653110941, -0.07430219441321075, -0.04181162911424404, -0.025033714246744842, -1.6142431640625001, 0.429906005859375, 10.37282958984375
1520621018658126941, -0.07616640717626622, -0.04154531300523612, -0.02423476591972107, -1.59029296875, 0.43349853515625003, 10.36564453125
1520621018663141941, -0.07749798772130584, -0.03808320358813311, -0.02210423704765768, -1.6010705566406251, 0.41433837890625, 10.362052001953126
1520621018668157941, -0.07696535550328999, -0.03382214584400633, -0.01944107595757844, -1.658551025390625, 0.415535888671875, 10.314151611328125
1520621018673173941, -0.07456851052221868, -0.030892668644919165, -0.022370553156665602, -1.65016845703125, 0.4167333984375, 10.268646240234375
1520621018678188941, -0.07563377495825037, -0.02849582366384785, -0.023169501483689375, -1.65016845703125, 0.41194335937500004, 10.266251220703126
1520621018683203941, -0.07297061386817114, -0.026631610900792385, -0.02716424311880823, -1.658551025390625, 0.4071533203125, 10.1979931640625
1520621018688219941, -0.07004113666908397, -0.02636529479178446, -0.030892668644919165, -1.6429833984375002, 0.41433837890625, 10.208770751953125
1520621018693235941, -0.06657902725198096, -0.024501082028728992, -0.03302319751698256, -1.65974853515625, 0.398770751953125, 10.188413085937501
1520621018698250941, -0.06045375674479871, -0.02556634646476069, -0.03568635860706179, -1.6357983398437501, 0.42152343750000004, 10.160870361328126
1520621018703265941, -0.05566006678265608, -0.025300030355752765, -0.037816887479125184, -1.593885498046875, 0.46223876953125004, 10.153685302734376
1520621018708281941, -0.04873584794845006, -0.025832662573768612, -0.038615835806148954, -1.56873779296875, 0.5125341796875, 10.158475341796876
1520621018713297941, -0.04287689355027574, -0.028762139772855775, -0.04154531300523612, -1.4992822265625, 0.536484375, 10.201585693359375
1520621018718312941, -0.03755057137011726, -0.02982740420888747, -0.04234426133225989, -1.462159423828125, 0.530496826171875, 10.174042968750001
1520621018723328941, -0.03222424918995878, -0.036218990825077645, -0.04101268078722027, -1.440604248046875, 0.54366943359375, 10.165660400390626
1520621018728344941, -0.026631610900792385, -0.046605319076386674, -0.03595267471606972, -1.452579345703125, 0.564027099609375, 10.166857910156251
1520621018733358941, -0.01997370817559429, -0.05672533121868778, -0.03142530086293501, -1.389111328125, 0.544866943359375, 10.187215576171875
1520621018738376941, -0.014381069886427887, -0.06604639503396512, -0.027963191445832, -1.390308837890625, 0.547261962890625, 10.09021728515625
1520621018743390941, -0.007989483270237714, -0.07536745884924245, -0.024501082028728992, -1.411864013671875, 0.54366943359375, 10.01836669921875
1520621018748407941, -0.0005326322180158477, -0.07909588437535338, -0.021571604829641832, -1.466949462890625, 0.523311767578125, 9.990823974609375
1520621018753421941, 0.007190534943213944, -0.08016114881138507, -0.021038972611625982, -1.507664794921875, 0.530496826171875, 9.97525634765625
1520621018758437941, 0.015180018213451659, -0.08069378102940092, -0.021571604829641832, -1.51365234375, 0.5245092773437501, 9.940528564453125
