timestamp, angular_velocity_x, angular_velocity_y, angular_velocity_z, linear_acceleration_x, linear_acceleration_y, linear_acceleration_z
1520530731372454010, -0.0636495500528938, -0.08548747099154355, 0.02769687533682408, -1.555565185546875, -0.827479248046875, 10.711724853515626
1520530731377471010, -0.06498113059793342, -0.09560748313384466, 0.02636529479178446, -1.5064672851562502, -0.8765771484375, 10.69376220703125
1520530731382486010, -0.05752427954571155, -0.10546117916713783, 0.03195793308095086, -1.447789306640625, -0.925675048828125, 10.599158935546875
1520530731387502010, -0.05299690569257685, -0.11584750741844686, 0.03542004249805387, -1.423839111328125, -0.9723779296875, 10.518925781250001
1520530731392518010, -0.044741106313331204, -0.1251685712337242, 0.03675162304309349, -1.4418017578125, -0.987945556640625, 10.44468017578125
1520530731397533010, -0.03488741028003802, -0.12996226119586685, 0.03675162304309349, -1.490899658203125, -1.033450927734375, 10.371632080078125
1520530731402549010, -0.024501082028728992, -0.132891738394954, 0.031691616971942935, -1.526824951171875, -1.044228515625, 10.336904296875
1520530731407565010, -0.010120012142301106, -0.13715279613908077, 0.02290318537468145, -1.534010009765625, -1.021475830078125, 10.25786865234375
1520530731412580010, 0.009321063815277334, -0.1408812216651917, 0.021305288720633905, -1.6178356933593752, -1.055006103515625, 10.1788330078125
1520530731417597010, 0.02689792700980031, -0.1472728082813819, 0.01464738599543581, -1.6357983398437501, -1.117276611328125, 10.212363281250001
1520530731422613010, 0.04846953183944214, -0.14434333108229472, 0.003994741635118857, -1.60226806640625, -1.13284423828125, 10.158475341796876
1520530731427629010, 0.0727042977591632, -0.14221280221023133, -0.005326322180158476, -1.64537841796875, -1.1256591796875, 10.16206787109375
1520530731432644010, 0.08894958040864656, -0.14381069886427889, -0.017044230976507126, -1.6609460449218751, -1.12805419921875, 10.145302734375
1520530731437660010, 0.10679275971217746, -0.13555489948503324, -0.032756881407974635, -1.706451416015625, -1.1472143554687502, 10.177635498046875
1520530731442677010, 0.12436962290670044, -0.13022857730487475, -0.05060006071150553, -1.670526123046875, -1.0969189453125001, 10.20038818359375
1520530731447691010, 0.13688648003007287, -0.11717908796348649, -0.06604639503396512, -1.71722900390625, -1.1136840820312501, 10.166857910156251
1520530731452708010, 0.14940333715344528, -0.10759170803920123, -0.07989483270237716, -1.71722900390625, -1.1388317871093752, 10.127340087890625
1520530731457723010, 0.15952334929574638, -0.09773801200590805, -0.09587379924285258, -1.728006591796875, -1.112486572265625, 10.181228027343751
1520530731462737010, 0.16777914867499202, -0.09294432204376542, -0.11105381745630424, -1.6477734375000002, -1.110091552734375, 10.22912841796875
1520530731467755010, 0.1765675802722535, -0.0937432703707892, -0.11691277185447857, -1.5160473632812501, -1.0873388671875, 10.233918457031251
1520530731472771010, 0.1864212763055467, -0.10253170196805068, -0.12144014570761327, -1.4346166992187501, -1.025068359375, 10.259066162109375
1520530731477787010, 0.19148128237669723, -0.11877698461753403, -0.12223909403463704, -1.3699511718750002, -0.9867480468750001, 10.278226318359376
1520530731482803010, 0.19920444953792704, -0.1307612095228906, -0.11904330072654196, -1.3352233886718752, -0.96998291015625, 10.299781494140625
1520530731487819010, 0.2055960361541172, -0.14141385388320757, -0.11238539800134385, -1.282532958984375, -0.91250244140625, 10.290201416015625
1520530731492832010, 0.21385183553336284, -0.1454085955183264, -0.1073253919301933, -1.3567785644531252, -0.87897216796875, 10.21475830078125
1520530731497848010, 0.220243422149553, -0.1472728082813819, -0.10199906975003482, -1.3184582519531252, -0.8370593261718751, 10.251881103515625
1520530731502865010, 0.22397184767566394, -0.13502226726701738, -0.09933590865995559, -1.312470703125, -0.8430468750000001, 10.360854492187501
1520530731507882010, 0.23169501483689373, -0.12383699068868459, -0.09427590258880504, -1.350791015625, -0.839454345703125, 10.34887939453125
1520530731512896010, 0.23489080814498883, -0.11478224298241517, -0.09028116095368618, -1.3531860351562501, -0.8286767578125, 10.317744140625
1520530731517913010, 0.2335592275999492, -0.10972223691126462, -0.08841694819063071, -1.2885205078125002, -0.822689208984375, 10.32013916015625
1520530731522929010, 0.2311623826188779, -0.10146643753201898, -0.08548747099154355, -1.351988525390625, -0.85502197265625, 10.36564453125
1520530731527945010, 0.22716764098375902, -0.0982706442239239, -0.08388957433749601, -1.299298095703125, -0.89813232421875, 10.298583984375
1520530731532961010, 0.2199771060405451, -0.09773801200590805, -0.08309062601047223, -1.2370275878906252, -0.880169677734375, 10.272238769531251
1520530731537976010, 0.2122539388793153, -0.10040117309598728, -0.08096009713840885, -1.2933105468750001, -0.9029223632812501, 10.27702880859375
1520530731542992010, 0.20426445560907758, -0.10120012142301106, -0.07696535550328999, -1.272952880859375, -0.93645263671875, 10.321336669921875
1520530731548007010, 0.19121496626768933, -0.10333065029507445, -0.07403587830420283, -1.325643310546875, -0.93884765625, 10.302176513671876
1520530731553023010, 0.1829591668884437, -0.10652644360316954, -0.07030745277809189, -1.392703857421875, -0.8705895996093751, 10.247091064453125
1520530731558039010, 0.1731054708551505, -0.10093380531400313, -0.06524744670694134, -1.302890625, -0.8669970703125001, 10.335706787109375
1520530731563054010, 0.160854929840786, -0.08575378710055148, -0.05938849230876701, -1.3364208984375001, -0.839454345703125, 10.371632080078125
1520530731568071010, 0.14807175660840566, -0.07456851052221868, -0.04980111238448176, -1.30528564453125, -0.767603759765625, 10.3704345703125
1520530731573088010, 0.13715279613908077, -0.06604639503396512, -0.037017939152101415, -1.2466076660156251, -0.70892578125, 10.426717529296875
1520530731578103010, 0.1241033067976925, -0.06098638896281456, -0.02716424311880823, -1.1879296875, -0.6442602539062501, 10.479407958984375
1520530731583119010, 0.10785802414820915, -0.056192699000671927, -0.018375811521546746, -1.169967041015625, -0.592767333984375, 10.518925781250001
1520530731588135010, 0.0905474770626941, -0.05299690569257685, -0.007723167161229791, -1.11847412109375, -0.55324951171875, 10.55006103515625
1520530731593151010, 0.07297061386817114, -0.04980111238448176, 0.003728425526110934, -1.0202783203125, -0.51013916015625, 10.570418701171876
1520530731598166010, 0.05725796343670363, -0.05246427347456099, 0.014381069886427887, -0.9340576171875, -0.49576904296875, 10.560838623046875
1520530731603183010, 0.041278996896228194, -0.0580569117637274, 0.0290284558818637, -0.8813671875000001, -0.484991455078125, 10.577603759765626
1520530731608199010, 0.026631610900792385, -0.061519021180830406, 0.0402137324601965, -0.8646020507812501, -0.47660888671875, 10.593171386718751
1520530731613213010, 0.007989483270237714, -0.06578007892495719, 0.0468716351853946, -0.9029223632812501, -0.48020141601562505, 10.575208740234375
1520530731618230010, -0.006657902725198096, -0.07030745277809189, 0.053529537910592694, -0.89813232421875, -0.51492919921875, 10.607541503906251
1520530731623246010, -0.018109495412538822, -0.0737695621951949, 0.06098638896281456, -0.899329833984375, -0.559237060546875, 10.520123291015626
1520530731628262010, -0.031691616971942935, -0.07563377495825037, 0.0681769239060285, -0.861009521484375, -0.58198974609375, 10.457852783203126
1520530731633277010, -0.04181162911424404, -0.07057376888709982, 0.0759000910672583, -0.8562194824218751, -0.590372314453125, 10.49258056640625
1520530731638294010, -0.0468716351853946, -0.0636495500528938, 0.08628641931856733, -0.8454418945312501, -0.592767333984375, 10.471025390625
1520530731643309010, -0.05033374460249761, -0.05219795736555307, 0.09906959255094767, -0.89813232421875, -0.59396484375, 10.33450927734375
1520530731648325010, -0.05779059565471947, -0.04447479020432328, 0.10759170803920123, -0.963995361328125, -0.604742431640625, 10.32732421875
1520530731653341010, -0.06444849837991756, -0.03568635860706179, 0.1094559208022567, -0.9544152832031251, -0.61072998046875, 10.41114990234375
1520530731658357010, -0.07084008499610774, -0.03249056529896671, 0.11291803021935971, -0.920885009765625, -0.604742431640625, 10.419532470703125
1520530731663372010, -0.07456851052221868, -0.021305288720633905, 0.11744540407249442, -0.948427734375, -0.5568420410156251, 10.3848046875
1520530731668389010, -0.08415589044650393, -0.011451592687340724, 0.11744540407249442, -1.026265869140625, -0.5700146484375, 10.390792236328126
1520530731673404010, -0.09108010928070995, -0.001864212763055467, 0.11824435239951818, -1.076561279296875, -0.5544470214843751, 10.386002197265626
1520530731678419010, -0.09880327644193974, 0.00692421883420602, 0.11664645574547064, -1.1352392578125001, -0.592767333984375, 10.397977294921876
1520530731683436010, -0.10492854694912199, 0.017576863194522972, 0.1150485590914231, -1.157991943359375, -0.6634204101562501, 10.400372314453126
1520530731688452010, -0.1105211852382884, 0.02689792700980031, 0.11345066243737556, -1.150806884765625, -0.6945556640625, 10.433902587890625
1520530731693467010, -0.11771172018150233, 0.031158984753927088, 0.10972223691126462, -1.2202624511718752, -0.69695068359375, 10.4614453125
1520530731698483010, -0.12090751348959743, 0.03648530693408557, 0.10652644360316954, -1.22385498046875, -0.70892578125, 10.443482666015626
1520530731703499010, -0.12330435847066874, 0.0391484680241648, 0.10546117916713783, -1.1831396484375, -0.6981481933593751, 10.44947021484375
1520530731708514010, -0.12170646181662119, 0.03941478413317273, 0.108390656366225, -1.2250524902343751, -0.7137158203125, 10.450667724609376
1520530731713530010, -0.11877698461753403, 0.041278996896228194, 0.1150485590914231, -1.2933105468750001, -0.70892578125, 10.512938232421876
1520530731718547010, -0.11451592687340725, 0.0402137324601965, 0.12144014570761327, -1.3483959960937502, -0.7125183105468751, 10.599158935546875
1520530731723563010, -0.10892328858424084, 0.037017939152101415, 0.12676646788777174, -1.4346166992187501, -0.719703369140625, 10.596763916015625
1520530731728578010, -0.10013485698697937, 0.036218990825077645, 0.13102752563189854, -1.5028747558593751, -0.75443115234375, 10.55724609375
1520530731733594010, -0.08974852873567034, 0.037816887479125184, 0.132891738394954, -1.512454833984375, -0.7831713867187501, 10.4614453125
1520530731738610010, -0.07776430383031376, 0.03568635860706179, 0.13448963504900155, -1.538800048828125, -0.865799560546875, 10.441087646484375
1520530731743626010, -0.06764429168801266, 0.03488741028003802, 0.13555489948503324, -1.589095458984375, -0.923280029296875, 10.390792236328126
1520530731748641010, -0.05486111845563231, 0.030360036426903318, 0.13156015784991437, -1.653760986328125, -0.95561279296875, 10.315349121093751
1520530731753657010, -0.041278996896228194, 0.030093720317895395, 0.1272991001057876, -1.692081298828125, -0.99872314453125, 10.196795654296876
1520530731758673010, -0.027430559227816155, 0.03488741028003802, 0.11984224905356573, -1.7459692382812502, -1.064586181640625, 10.1117724609375
1520530731763688010, -0.01171790879634865, 0.04234426133225989, 0.11025486912928047, -1.8190173339843752, -1.11847412109375, 10.084229736328126
1520530731768705010, 0.002663161090079238, 0.0513990090385293, 0.10093380531400313, -1.83697998046875, -1.205892333984375, 10.033934326171876
1520530731773720010, 0.014114753777419964, 0.0625842856168621, 0.08681905153658317, -1.7771044921875, -1.2633728027343751, 9.995614013671876
1520530731778736010, 0.029561088099879545, 0.07669903939428206, 0.07323692997717905, -1.790277099609375, -1.2717553710937501, 10.031539306640626
1520530731783751010, 0.04101268078722027, 0.09001484484467825, 0.055926382891664, -1.7926721191406252, -1.234632568359375, 10.09740234375
1520530731788767010, 0.05273058958356892, 0.10093380531400313, 0.036218990825077645, -1.76512939453125, -1.205892333984375, 10.13811767578125
1520530731793785010, 0.06178533728983833, 0.10626012749416161, 0.016245282649483356, -1.632205810546875, -1.131646728515625, 10.219548339843751
1520530731798800010, 0.06950850445106813, 0.10626012749416161, -0.0010652644360316954, -1.504072265625, -1.153201904296875, 10.32732421875
1520530731803816010, 0.07483482663122659, 0.10146643753201898, -0.01651159875849128, -1.4992822265625, -1.06578369140625, 10.4374951171875
1520530731808832010, 0.07669903939428206, 0.09187905760773372, -0.030892668644919165, -1.4729370117187501, -0.96998291015625, 10.546468505859375
1520530731813846010, 0.07323692997717905, 0.0860201032095594, -0.04527373853134705, -1.4561718750000001, -0.9160949707031251, 10.585986328125001
1520530731818863010, 0.07030745277809189, 0.08309062601047223, -0.06285060172587002, -1.4250366210937502, -0.9029223632812501, 10.61233154296875
1520530731823878010, 0.06870955612404435, 0.08255799379245639, -0.07989483270237716, -1.4346166992187501, -0.9005273437500001, 10.570418701171876
1520530731828894010, 0.06551376281594927, 0.08415589044650393, -0.09534116702483673, -1.427431640625, -0.940045166015625, 10.529703369140625
1520530731833911010, 0.06311691783487795, 0.08122641324741676, -0.10892328858424084, -1.371148681640625, -0.9651928710937501, 10.4566552734375
1520530731838926010, 0.06098638896281456, 0.07510114274023452, -0.11877698461753403, -1.3962963867187501, -1.005908203125, 10.381212158203125
1520530731843943010, 0.05832322787273532, 0.06977482056007604, -0.12996226119586685, -1.4932946777343752, -1.082548828125, 10.315349121093751
1520530731848959010, 0.05725796343670363, 0.06791060779702057, -0.1419464861012234, -1.638193359375, -1.253792724609375, 10.29618896484375
1520530731853974010, 0.058855860090751166, 0.07057376888709982, -0.15712650431467506, -1.68848876953125, -1.36037109375, 10.328521728515625
1520530731858989010, 0.05832322787273532, 0.07243798165015529, -0.17124125809209503, -1.5950830078125, -1.3615686035156251, 10.378817138671875
1520530731864005010, 0.05779059565471947, 0.07163903332313151, -0.17949705747134068, -1.6310083007812501, -1.359173583984375, 10.402767333984375
1520530731869022010, 0.06098638896281456, 0.06631271114297303, -0.185356011869515, -1.572330322265625, -1.30049560546875, 10.438692626953125
1520530731874038010, 0.06178533728983833, 0.05832322787273532, -0.19228023070372102, -1.6238232421875, -1.2969030761718752, 10.471025390625
1520530731879053010, 0.06178533728983833, 0.04926848016646591, -0.20426445560907758, -1.689686279296875, -1.3268408203125002, 10.556048583984376
1520530731884068010, 0.05832322787273532, 0.04074636467821235, -0.22077605436756886, -1.6956738281250001, -1.4226416015625, 10.654244384765626
1520530731889085010, 0.05299690569257685, 0.03195793308095086, -0.2402171303251473, -1.7411791992187502, -1.466949462890625, 10.674602050781251
1520530731894100010, 0.046605319076386674, 0.02476739813773692, -0.25859294184669407, -1.7196240234375, -1.4813195800781251, 10.74884765625
1520530731899116010, 0.037017939152101415, 0.01864212763055467, -0.2767024372592329, -1.723216552734375, -1.4597644042968752, 10.815908203125
1520530731904132010, 0.027963191445832, 0.007989483270237714, -0.29374666823573997, -1.766326904296875, -1.47533203125, 10.796748046875
1520530731909149010, 0.016777914867499202, 0.004261057744126781, -0.3105245831032392, -1.7711169433593752, -1.447789306640625, 10.69376220703125
1520530731914164010, 0.004527373853134706, 0.003728425526110934, -0.325171969098675, -1.7375866699218752, -1.428629150390625, 10.575208740234375
1520530731919180010, -0.006391586616190172, 0.01038632825130903, -0.3347593490229603, -1.7639318847656251, -1.427431640625, 10.4183349609375
1520530731924196010, -0.016777914867499202, 0.02077265650261806, -0.3430151484022059, -1.811832275390625, -1.471739501953125, 10.275831298828125
1520530731929211010, -0.023702133701705222, 0.03488741028003802, -0.3542004249805387, -1.8238073730468751, -1.4813195800781251, 10.188413085937501
1520530731934228010, -0.03382214584400633, 0.047404267403410444, -0.3659183337768874, -1.76033935546875, -1.4849121093750002, 10.13332763671875
1520530731939243010, -0.04287689355027574, 0.05779059565471947, -0.3731088687201013, -1.5567626953125, -1.380728759765625, 10.160870361328126
1520530731944258010, -0.050067428493489684, 0.06418218227090965, -0.37257623650208543, -1.0346484375, -1.0238708496093751, 10.280621337890626
1520530731949275010, -0.053529537910592694, 0.04234426133225989, -0.34914041890938813, -0.34248779296875004, -0.47900390625, 10.566826171875
1520530731954290010, -0.04873584794845006, -0.01171790879634865, -0.3028014159420094, 0.228724365234375, 0.027542724609375003, 10.812315673828126
1520530731959307010, -0.04367584187729951, -0.08069378102940092, -0.24394555585125824, 0.44188110351562504, 0.4263134765625, 11.04343505859375
1520530731964321010, -0.037816887479125184, -0.14460964719130265, -0.1800296896893565, 0.45265869140625004, 0.65384033203125, 11.090137939453125
1520530731969338010, -0.025033714246744842, -0.18508969576050707, -0.11877698461753403, 0.408350830078125, 0.7855664062500001, 10.97876953125
1520530731974355010, -0.007456851052221868, -0.20080234619197457, -0.0692421883420602, 0.25387207031250003, 0.8370593261718751, 10.917696533203125
1520530731979371010, 0.011451592687340724, -0.1965412884478478, -0.027430559227816155, 0.01916015625, 0.8322692871093751, 10.70334228515625
1520530731984386010, 0.03062635253591124, -0.17257283863713466, 0.005858954398174325, -0.130528564453125, 0.743653564453125, 10.5380859375
1520530731989402010, 0.0569916473276957, -0.14247911831923926, 0.03249056529896671, -0.233514404296875, 0.6179150390625, 10.287806396484376
1520530731994416010, 0.07989483270237716, -0.111852765783328, 0.05725796343670363, -0.295784912109375, 0.544866943359375, 10.04231689453125
1520530731999433010, 0.10679275971217746, -0.08735168375459902, 0.08335694211948017, -0.437091064453125, 0.484991455078125, 9.986033935546876
1520530732004449010, 0.12889699675983513, -0.07909588437535338, 0.10546117916713783, -0.439486083984375, 0.38559814453125, 9.9584912109375
1520530732009465010, 0.15339807878856412, -0.07696535550328999, 0.12863068065082722, -0.48020141601562505, 0.22632934570312502, 10.02794677734375
1520530732014480010, 0.17576863194522974, -0.08415589044650393, 0.1518001821345166, -0.501756591796875, 0.13412109375, 10.10937744140625
1520530732019497010, 0.19707392066586363, -0.08628641931856733, 0.17470336750919804, -0.602347412109375, 0.032332763671875, 10.232720947265625
1520530732024513010, 0.2157160482964183, -0.08788431597261487, 0.1898833857226497, -0.7831713867187501, -0.086220703125, 10.424322509765625
1520530732029529010, 0.23302659538193335, -0.08255799379245639, 0.20373182339106174, -0.887354736328125, -0.22752685546875, 10.55006103515625
1520530732034544010, 0.24953819414042464, -0.0692421883420602, 0.20959077778923607, -1.052611083984375, -0.386795654296875, 10.61712158203125
1520530732039560010, 0.25859294184669407, -0.050067428493489684, 0.20746024891717266, -1.155596923828125, -0.4981640625, 10.700947265625
1520530732044575010, 0.26471821235387627, -0.03488741028003802, 0.20026971397395874, -1.328038330078125, -0.6382727050781251, 10.800340576171875
1520530732049591010, 0.2695119023160189, -0.028762139772855775, 0.19281286292173686, -1.387913818359375, -0.779578857421875, 10.821895751953125
1520530732054607010, 0.26977821842502686, -0.025300030355752765, 0.1842907474334833, -1.3867163085937502, -0.918489990234375, 10.831475830078126
1520530732059622010, 0.2689792700980031, -0.023702133701705222, 0.17177389031011087, -1.4609619140625, -0.983155517578125, 10.8302783203125
1520530732064638010, 0.2620550512637971, -0.023968449810713145, 0.1565938720966592, -1.5447875976562502, -1.028660888671875, 10.89494384765625
1520530732069655010, 0.2503371424674484, -0.029561088099879545, 0.14168016999221547, -1.60705810546875, -1.112486572265625, 10.930869140625001
1520530732074671010, 0.23755396923506805, -0.034354778062022175, 0.12303804236166081, -1.68848876953125, -1.169967041015625, 11.084150390625
1520530732079686010, 0.2210423704765768, -0.03595267471606972, 0.10093380531400313, -1.72201904296875, -1.18074462890625, 11.054212646484375
1520530732084702010, 0.20240024284602212, -0.03488741028003802, 0.0782969360483296, -1.7256115722656251, -1.1819421386718751, 10.990744628906251
1520530732089718010, 0.1829591668884437, -0.031158984753927088, 0.06018744063579079, -1.6393908691406252, -1.1268566894531251, 11.01469482421875
1520530732094733010, 0.1597896654047543, -0.025832662573768612, 0.042077945223251964, -1.55197265625, -1.093326416015625, 10.891351318359376
1520530732099750010, 0.13875069279312832, -0.023702133701705222, 0.027963191445832, -1.46335693359375, -1.059796142578125, 10.929671630859376
1520530732104765010, 0.11531487520043102, -0.02476739813773692, 0.017843179303530896, -1.387913818359375, -0.9903405761718751, 10.989547119140626
1520530732109782010, 0.08841694819063071, -0.033555829734998405, 0.004261057744126781, -1.217867431640625, -0.890947265625, 10.946436767578126
1520530732114796010, 0.06604639503396512, -0.049002164057457984, -0.003195793308095086, -1.1256591796875, -0.7340734863281251, 10.922486572265626
1520530732119814010, 0.04767058351241837, -0.06311691783487795, -0.00346210941710301, -1.0681787109375, -0.5975573730468751, 10.829080810546875
1520530732124830010, 0.031158984753927088, -0.07456851052221868, -0.003728425526110934, -1.025068359375, -0.499361572265625, 10.735675048828126
1520530732129845010, 0.018375811521546746, -0.0782969360483296, 0.0021305288720633907, -1.011895751953125, -0.40954833984375, 10.671009521484375
1520530732134860010, 0.011984224905356573, -0.07723167161229791, 0.012250541014364496, -1.0023156738281251, -0.33769775390625, 10.49737060546875
1520530732139877010, 0.009587379924285258, -0.0727042977591632, 0.02077265650261806, -1.0238708496093751, -0.30416748046875003, 10.409952392578125
1520530732144892010, 0.008788431597261486, -0.06711165946999681, 0.031158984753927088, -1.011895751953125, -0.324525146484375, 10.369237060546876
1520530732149909010, 0.007989483270237714, -0.06418218227090965, 0.04154531300523612, -1.004710693359375, -0.354462890625, 10.292596435546875
1520530732154924010, 0.009853696033293183, -0.06098638896281456, 0.04980111238448176, -1.0298583984375, -0.396375732421875, 10.230325927734375
1520530732159940010, 0.014381069886427887, -0.05566006678265608, 0.05486111845563231, -1.0154882812500001, -0.444276123046875, 10.187215576171875
1520530732164954010, 0.016245282649483356, -0.0513990090385293, 0.05938849230876701, -1.0585986328125, -0.5376818847656251, 10.1500927734375
1520530732169971010, 0.019174759848570515, -0.03568635860706179, 0.05912217619975909, -1.12326416015625, -0.6334826660156251, 10.108179931640626
1520530732174988010, 0.022370553156665602, -0.017576863194522972, 0.05486111845563231, -1.197509765625, -0.77838134765625, 10.061477050781251
1520530732180004010, 0.025300030355752765, 0.003728425526110934, 0.05060006071150553, -1.2981005859375, -0.8538244628906251, 9.9968115234375
1520530732185019010, 0.025832662573768612, 0.02556634646476069, 0.04447479020432328, -1.350791015625, -0.959205322265625, 10.00399658203125
1520530732190035010, 0.026631610900792385, 0.04607268685837083, 0.035153726389045944, -1.4166540527343752, -1.04183349609375, 10.0734521484375
1520530732195050010, 0.025300030355752765, 0.06764429168801266, 0.025832662573768612, -1.4214440917968751, -1.02267333984375, 10.087822265625
1520530732200067010, 0.020506340393610135, 0.08468852266451977, 0.01464738599543581, -1.45377685546875, -1.004710693359375, 10.09500732421875
1520530732205082010, 0.01597896654047543, 0.10146643753201898, 0.003195793308095086, -1.507664794921875, -0.9903405761718751, 10.151290283203126
1520530732210098010, 0.009587379924285258, 0.12223909403463704, -0.009853696033293183, -1.534010009765625, -0.9496252441406251, 10.181228027343751
1520530732215113010, 0.002663161090079238, 0.14327806664626302, -0.01944107595757844, -1.5112573242187501, -0.91729248046875, 10.218350830078126
1520530732220131010, -0.003195793308095086, 0.15899071707773052, -0.02849582366384785, -1.4322216796875, -0.8286767578125, 10.244696044921875
1520530732225146010, -0.010918960469324878, 0.17150757420110296, -0.030093720317895395, -1.37713623046875, -0.737666015625, 10.314151611328125
1520530732230162010, -0.016245282649483356, 0.17789916081729312, -0.022636869265673525, -1.292113037109375, -0.6358776855468751, 10.37761962890625
1520530732235178010, -0.02423476591972107, 0.17896442525332482, -0.009054747706269411, -1.1639794921875, -0.583187255859375, 10.41593994140625
1520530732240194010, -0.02822950755483993, 0.17044230976507124, 0.009054747706269411, -1.102906494140625, -0.47181884765625004, 10.4614453125
1520530732245208010, -0.029561088099879545, 0.157392820423683, 0.031158984753927088, -1.035845947265625, -0.39996826171875, 10.55964111328125
1520530732250225010, -0.03222424918995878, 0.14460964719130265, 0.05912217619975909, -0.9759704589843751, -0.33290771484375004, 10.57640625
1520530732255241010, -0.03222424918995878, 0.13156015784991437, 0.08548747099154355, -0.966390380859375, -0.259859619140625, 10.596763916015625
1520530732260257010, -0.02982740420888747, 0.1150485590914231, 0.10439591473110614, -0.947230224609375, -0.264649658203125, 10.681787109375001
1520530732265272010, -0.027430559227816155, 0.10253170196805068, 0.12170646181662119, -1.031055908203125, -0.30416748046875003, 10.76082275390625
1520530732270289010, -0.025033714246744842, 0.08841694819063071, 0.1318264739589223, -1.184337158203125, -0.47062133789062505, 10.685379638671876
1520530732275303010, -0.016777914867499202, 0.07217166554114736, 0.12916331286884306, -1.1543994140625, -0.5352868652343751, 10.601553955078126
1520530732280319010, -0.005858954398174325, 0.062317969507854176, 0.1262338356697559, -1.229842529296875, -0.5760021972656251, 10.660231933593751
1520530732285337010, 0.011451592687340724, 0.05219795736555307, 0.12250541014364497, -1.351988525390625, -0.6634204101562501, 10.522518310546875
1520530732290351010, 0.023702133701705222, 0.03834951969714103, 0.11797803629051026, -1.30528564453125, -0.702938232421875, 10.477012939453125
1520530732295366010, 0.043143209659283664, 0.031691616971942935, 0.11584750741844686, -1.342408447265625, -0.7041357421875001, 10.391989746093751
1520530732300383010, 0.06391586616190172, 0.02423476591972107, 0.11291803021935971, -1.389111328125, -0.705333251953125, 10.352471923828125
1520530732305399010, 0.08202536157444054, 0.01864212763055467, 0.1059938113851537, -1.52083740234375, -0.6825805664062501, 10.335706787109375
1520530732310415010, 0.10226538585904275, 0.014913702104443736, 0.0972053797878922, -1.59029296875, -0.74964111328125, 10.259066162109375
1520530732315430010, 0.11717908796348649, 0.017843179303530896, 0.08282430990146432, -1.65495849609375, -0.7771838378906251, 10.251881103515625
1520530732320448010, 0.12942962897785099, 0.025832662573768612, 0.06524744670694134, -1.807042236328125, -0.85981201171875, 10.247091064453125
1520530732325463010, 0.1440770149732868, 0.02849582366384785, 0.04447479020432328, -1.766326904296875, -0.9268725585937501, 10.32732421875
1520530732330478010, 0.1510012338074928, 0.031158984753927088, 0.023968449810713145, -1.768721923828125, -0.980760498046875, 10.386002197265626
1520530732335494010, 0.15925703318673845, 0.03249056529896671, 0.007190534943213944, -1.79865966796875, -1.043031005859375, 10.472222900390625
1520530732340510010, 0.16405072314888108, 0.026631610900792385, -0.01038632825130903, -1.7208215332031251, -1.0238708496093751, 10.554851074218751
1520530732345524010, 0.17150757420110296, 0.0234358175926973, -0.02290318537468145, -1.6429833984375002, -1.00351318359375, 10.585986328125001
1520530732350542010, 0.1731054708551505, 0.013049489341388268, -0.03328951362599048, -1.560355224609375, -0.88855224609375, 10.645861816406251
1520530732355557010, 0.17470336750919804, 0.0021305288720633907, -0.039681100242180654, -1.4549743652343752, -0.81191162109375, 10.656639404296875
1520530732360573010, 0.17896442525332482, -0.007723167161229791, -0.0391484680241648, -1.2981005859375, -0.722098388671875, 10.624306640625
1520530732365588010, 0.18242653467042783, -0.01997370817559429, -0.037017939152101415, -1.1879296875, -0.664617919921875, 10.5907763671875
1520530732370605010, 0.18508969576050707, -0.030360036426903318, -0.03488741028003802, -1.063388671875, -0.5891748046875, 10.494975585937501
1520530732375620010, 0.1874865407415784, -0.0391484680241648, -0.02849582366384785, -0.9819580078125001, -0.49576904296875, 10.423125
1520530732380637010, 0.1901497018316576, -0.04767058351241837, -0.021305288720633905, -0.961600341796875, -0.396375732421875, 10.369237060546876
1520530732385653010, 0.1920139145947131, -0.05512743456464023, -0.01651159875849128, -0.884959716796875, -0.33290771484375004, 10.271041259765626
1520530732390668010, 0.19334549513975272, -0.06205165339884625, -0.013049489341388268, -0.9352551269531251, -0.35685791015625, 10.25068359375
1520530732395683010, 0.19307917903074479, -0.06657902725198096, -0.009853696033293183, -0.963995361328125, -0.33290771484375004, 10.181228027343751
1520530732400700010, 0.19307917903074479, -0.07137271721412358, -0.00825579937924564, -0.9604028320312501, -0.317340087890625, 10.152487792968751
1520530732405717010, 0.1920139145947131, -0.07510114274023452, -0.005326322180158476, -0.942440185546875, -0.34248779296875004, 10.106982421875001
1520530732410732010, 0.19174759848570516, -0.08016114881138507, -0.003994741635118857, -0.9711804199218751, -0.34248779296875004, 10.1021923828125
1520530732415746010, 0.19281286292173686, -0.08655273542757524, 0.0, -0.9352551269531251, -0.36284545898437504, 10.110574951171875
1520530732420764010, 0.19414444346677648, -0.0905474770626941, 0.002663161090079238, -0.9436376953125001, -0.338895263671875, 10.110574951171875
1520530732425779010, 0.1965412884478478, -0.0905474770626941, 0.007456851052221868, -1.052611083984375, -0.3065625, 10.077044677734376
1520530732430795010, 0.1989381334289191, -0.08175904546543261, 0.01384843766841204, -1.155596923828125, -0.23231689453125, 10.02315673828125
1520530732435811010, 0.1989381334289191, -0.06897587223305228, 0.016245282649483356, -1.20948486328125, -0.28261230468750004, 9.962083740234375
1520530732440827010, 0.20186761062800626, -0.05033374460249761, 0.020240024284602212, -1.24780517578125, -0.389190673828125, 9.918973388671876
1520530732445842010, 0.20479708782709344, -0.03328951362599048, 0.020506340393610135, -1.354383544921875, -0.47900390625, 10.091414794921876
1520530732450859010, 0.20373182339106174, -0.02476739813773692, 0.018109495412538822, -1.5028747558593751, -0.63228515625, 10.330916748046876
1520530732455873010, 0.20319919117304588, -0.02769687533682408, 0.012250541014364496, -1.619033203125, -0.74964111328125, 10.5907763671875
1520530732460890010, 0.19574234012082403, -0.0346210941710301, 0.003195793308095086, -1.6657360839843751, -0.85023193359375, 10.839858398437501
1520530732465904010, 0.1845570635424912, -0.045540054640354974, -0.010652644360316953, -1.6693286132812502, -0.871787109375, 10.959609375000001
1520530732470922010, 0.17070862587407917, -0.055926382891664, -0.025832662573768612, -1.6310083007812501, -0.8131091308593751, 11.07696533203125
1520530732475937010, 0.15259913046154036, -0.06391586616190172, -0.04101268078722027, -1.4801220703125, -0.7256909179687501, 11.084150390625
1520530732480954010, 0.13129384174090644, -0.06897587223305228, -0.0513990090385293, -1.256187744140625, -0.566422119140625, 11.073372802734376
1520530732485969010, 0.11291803021935971, -0.07190534943213944, -0.05379585401960062, -1.1088940429687502, -0.41194335937500004, 11.05301513671875
1520530732490987010, 0.08841694819063071, -0.08255799379245639, -0.04846953183944214, -0.98914306640625, -0.310155029296875, 11.078162841796875
1520530732496000010, 0.06578007892495719, -0.0926780059347575, -0.03728425526110934, -0.8322692871093751, -0.233514404296875, 11.08175537109375
1520530732501017010, 0.04234426133225989, -0.10333065029507445, -0.021038972611625982, -0.781973876953125, -0.2347119140625, 10.970386962890625
1520530732506032010, 0.025033714246744842, -0.12010856516257365, -0.0010652644360316954, -0.798739013671875, -0.229921875, 10.855426025390626
1520530732511047010, 0.011451592687340724, -0.13715279613908077, 0.01864212763055467, -0.8155041503906251, -0.20597167968750002, 10.785970458984375
1520530732516063010, 0.0010652644360316954, -0.1552622915516196, 0.03888215191515688, -0.9113049316406251, -0.239501953125, 10.742860107421876
1520530732521080010, -0.003195793308095086, -0.16724651645697616, 0.05566006678265608, -0.918489990234375, -0.316142578125, 10.67220703125
1520530732526095010, -0.007723167161229791, -0.17923074136233275, 0.07030745277809189, -1.0023156738281251, -0.35326538085937503, 10.621911621093751
1520530732531111010, -0.009321063815277334, -0.1909486501586814, 0.08096009713840885, -1.1352392578125001, -0.35206787109375004, 10.615924072265626
1520530732536127010, -0.007190534943213944, -0.20080234619197457, 0.08628641931856733, -1.2310400390625, -0.39038818359375, 10.59796142578125
1520530732541143010, -0.005060006071150553, -0.20373182339106174, 0.08761799986360694, -1.350791015625, -0.4167333984375, 10.575208740234375
1520530732546158010, -0.0010652644360316954, -0.20186761062800626, 0.08788431597261487, -1.40108642578125, -0.45265869140625004, 10.53090087890625
1520530732551175010, 0.00346210941710301, -0.19627497233883986, 0.08681905153658317, -1.3448034667968751, -0.429906005859375, 10.509345703125
1520530732556190010, 0.007456851052221868, -0.19148128237669723, 0.08788431597261487, -1.277742919921875, -0.415535888671875, 10.509345703125
1520530732561206010, 0.013582121559404116, -0.185356011869515, 0.08974852873567034, -1.2310400390625, -0.40475830078125, 10.520123291015626
1520530732566222010, 0.016245282649483356, -0.18402443132447538, 0.09454221869781296, -1.272952880859375, -0.40116577148437504, 10.594368896484376
1520530732571238010, 0.02077265650261806, -0.1864212763055467, 0.09986854087797144, -1.244212646484375, -0.4071533203125, 10.55006103515625
1520530732576254010, 0.0234358175926973, -0.1866875924145546, 0.10572749527614576, -1.239422607421875, -0.43110351562500004, 10.544073486328125
1520530732581270010, 0.026098978682776535, -0.18242653467042783, 0.11238539800134385, -1.2070898437500002, -0.44307861328125003, 10.541678466796876
1520530732586285010, 0.02556634646476069, -0.17630126416324557, 0.11904330072654196, -1.349593505859375, -0.5077441406250001, 10.528505859375
1520530732591301010, 0.025832662573768612, -0.16777914867499202, 0.11930961683554989, -1.390308837890625, -0.49217651367187504, 10.522518310546875
1520530732596316010, 0.02636529479178446, -0.14966965326245318, 0.11478224298241517, -1.3460009765625, -0.5316943359375, 10.4853955078125
1520530732601334010, 0.02423476591972107, -0.1307612095228906, 0.10466223084011407, -1.2933105468750001, -0.5975573730468751, 10.528505859375
1520530732606349010, 0.02290318537468145, -0.10812434025721708, 0.09747169589690012, -1.235830078125, -0.613125, 10.52132080078125
1520530732611365010, 0.02077265650261806, -0.08388957433749601, 0.08868326429963864, -1.1927197265625, -0.69695068359375, 10.499765625
1520530732616380010, 0.012250541014364496, -0.06338323394388587, 0.07643272328527415, -1.1472143554687502, -0.738863525390625, 10.50216064453125
1520530732621396010, 0.007989483270237714, -0.0391484680241648, 0.0625842856168621, -1.06099365234375, -0.762813720703125, 10.431507568359375
1520530732626412010, 0.007989483270237714, -0.013315805450396193, 0.04846953183944214, -0.9975256347656251, -0.76880126953125, 10.38719970703125
1520530732631428010, 0.008788431597261486, 0.010918960469324878, 0.03728425526110934, -0.8861572265625001, -0.786763916015625, 10.33450927734375
1520530732636444010, 0.012250541014364496, 0.03062635253591124, 0.025832662573768612, -0.808319091796875, -0.789158935546875, 10.357261962890625
1520530732641460010, 0.013315805450396193, 0.04713795129440252, 0.016245282649483356, -0.7616162109375001, -0.7580236816406251, 10.429112548828126
1520530732646475010, 0.01384843766841204, 0.0580569117637274, 0.008522115488253563, -0.741258544921875, -0.7711962890625, 10.40396484375
1520530732651492010, 0.012783173232380344, 0.0625842856168621, -0.0005326322180158477, -0.6442602539062501, -0.743653564453125, 10.383607177734376
1520530732656508010, 0.015180018213451659, 0.06338323394388587, -0.007456851052221868, -0.6167175292968751, -0.724493408203125, 10.352471923828125
1520530732661524010, 0.01864212763055467, 0.06098638896281456, -0.009054747706269411, -0.583187255859375, -0.718505859375, 10.317744140625
1520530732666538010, 0.021038972611625982, 0.05459480234662439, -0.011451592687340724, -0.53887939453125, -0.6981481933593751, 10.285411376953126
1520530732671555010, 0.02210423704765768, 0.048203215730434214, -0.012783173232380344, -0.47062133789062505, -0.6981481933593751, 10.298583984375
1520530732676570010, 0.025033714246744842, 0.037816887479125184, -0.009853696033293183, -0.4454736328125, -0.702938232421875, 10.357261962890625
1520530732681586010, 0.023169501483689375, 0.027963191445832, -0.00692421883420602, -0.47900390625, -0.6741979980468751, 10.441087646484375
1520530732686602010, 0.021837920938649755, 0.014913702104443736, -0.003728425526110934, -0.564027099609375, -0.652642822265625, 10.490185546875
1520530732691618010, 0.01731054708551505, 0.006657902725198096, -0.003728425526110934, -0.669407958984375, -0.6334826660156251, 10.566826171875
1520530732696633010, 0.012516857123372421, 0.00346210941710301, -0.0005326322180158477, -0.6873706054687501, -0.5544470214843751, 10.607541503906251
1520530732701650010, 0.009054747706269411, 0.0029294771990871623, 0.006657902725198096, -0.641865234375, -0.51732421875, 10.615924072265626
1520530732706666010, 0.003728425526110934, 0.008522115488253563, 0.012516857123372421, -0.707728271484375, -0.47062133789062505, 10.584788818359376
1520530732711681010, 0.0007989483270237715, 0.021305288720633905, 0.023702133701705222, -0.7915539550781251, -0.44307861328125003, 10.558443603515625
1520530732716697010, 0.00026631610900792384, 0.0346210941710301, 0.03595267471606972, -0.9029223632812501, -0.429906005859375, 10.515333251953125
1520530732721713010, 0.001597896654047543, 0.050067428493489684, 0.050067428493489684, -0.925675048828125, -0.465831298828125, 10.51653076171875
1520530732726730010, -0.0005326322180158477, 0.06125270507182248, 0.062317969507854176, -0.929267578125, -0.48020141601562505, 10.50695068359375
1520530732731746010, -0.00346210941710301, 0.07163903332313151, 0.07217166554114736, -0.947230224609375, -0.508941650390625, 10.515333251953125
1520530732736761010, -0.005858954398174325, 0.0814927293564247, 0.08229167768344847, -1.0202783203125, -0.54366943359375, 10.480605468750001
1520530732741777010, -0.0023968449810713144, 0.09640643146086843, 0.09001484484467825, -1.0490185546875002, -0.5748046875, 10.40396484375
1520530732746792010, -0.0029294771990871623, 0.10572749527614576, 0.09400958647979711, -1.08015380859375, -0.63228515625, 10.406359863281251
1520530732751808010, -0.00026631610900792384, 0.1161138235274548, 0.0972053797878922, -1.0190808105468752, -0.613125, 10.3416943359375
1520530732756824010, 0.003728425526110934, 0.12090751348959743, 0.09800432811491597, -0.978365478515625, -0.643062744140625, 10.3416943359375
1520530732761840010, 0.006125270507182248, 0.12436962290670044, 0.09853696033293181, -0.9819580078125001, -0.67300048828125, 10.413544921875001
1520530732766855010, 0.008522115488253563, 0.1227717262526529, 0.09640643146086843, -0.9244775390625001, -0.659827880859375, 10.420729980468751
1520530732771872010, 0.007456851052221868, 0.12197277792562912, 0.09294432204376542, -0.9496252441406251, -0.643062744140625, 10.459050292968751
1520530732776888010, 0.006391586616190172, 0.11904330072654196, 0.08974852873567034, -0.9376501464843751, -0.6634204101562501, 10.484197998046875
1520530732781903010, 0.006391586616190172, 0.12543488734273212, 0.08708536764559109, -1.1220666503906251, -0.652642822265625, 10.40156982421875
1520530732786920010, 0.007723167161229791, 0.12330435847066874, 0.07936220048436131, -1.06578369140625, -0.647852783203125, 10.25786865234375
1520530732791935010, 0.01171790879634865, 0.12090751348959743, 0.07217166554114736, -1.0154882812500001, -0.6682104492187501, 10.22433837890625
1520530732796950010, 0.017576863194522972, 0.11771172018150233, 0.06498113059793342, -0.95082275390625, -0.63947021484375, 10.172845458984375
1520530732801966010, 0.026098978682776535, 0.1272991001057876, 0.05645901510967986, -1.1160791015625, -0.621507568359375, 10.134525146484375
1520530732806982010, 0.03488741028003802, 0.12703278399677967, 0.04261057744126781, -1.1771520996093752, -0.647852783203125, 10.060279541015625
1520530732811998010, 0.039681100242180654, 0.13422331893999362, 0.026631610900792385, -1.1220666503906251, -0.6825805664062501, 10.166857910156251
1520530732817013010, 0.04953479627547384, 0.13821806057511246, 0.015446334322459582, -1.1567944335937501, -0.65384033203125, 10.146500244140626
1520530732822030010, 0.05486111845563231, 0.13262542228594607, 0.009321063815277334, -1.081351318359375, -0.6334826660156251, 10.1788330078125
1520530732827046010, 0.06045375674479871, 0.1262338356697559, 0.008522115488253563, -1.076561279296875, -0.561632080078125, 10.340496826171876
1520530732832062010, 0.0580569117637274, 0.11771172018150233, 0.012516857123372421, -0.948427734375, -0.523311767578125, 10.399174804687501
1520530732837077010, 0.05432848623761646, 0.11531487520043102, 0.022370553156665602, -1.0346484375, -0.5029541015625, 10.510543212890626
1520530732842093010, 0.05645901510967986, 0.11025486912928047, 0.03222424918995878, -1.0490185546875002, -0.487386474609375, 10.462642822265625
1520530732847108010, 0.05566006678265608, 0.10519486305812992, 0.043143209659283664, -1.0406359863281252, -0.5460644531250001, 10.539283447265625
1520530732852125010, 0.05752427954571155, 0.09347695426178126, 0.051665325147537224, -1.0490185546875002, -0.587977294921875, 10.517728271484376
1520530732857141010, 0.05779059565471947, 0.0759000910672583, 0.05752427954571155, -1.02267333984375, -0.60114990234375, 10.517728271484376
1520530732862155010, 0.06737797557900473, 0.06604639503396512, 0.06524744670694134, -1.0238708496093751, -0.59635986328125, 10.509345703125
1520530732867172010, 0.07323692997717905, 0.05033374460249761, 0.06977482056007604, -0.9723779296875, -0.6083349609375001, 10.443482666015626
1520530732872188010, 0.07909588437535338, 0.03888215191515688, 0.07430219441321075, -0.9580078125, -0.5652246093750001, 10.378817138671875
1520530732877205010, 0.08309062601047223, 0.031691616971942935, 0.07510114274023452, -1.01309326171875, -0.564027099609375, 10.263856201171876
1520530732882221010, 0.08841694819063071, 0.02929477199087162, 0.07163903332313151, -1.08494384765625, -0.6083349609375001, 10.165660400390626
1520530732887236010, 0.09454221869781296, 0.02769687533682408, 0.06338323394388587, -1.131646728515625, -0.6658154296875001, 10.079439697265625
1520530732892252010, 0.10093380531400313, 0.02476739813773692, 0.05432848623761646, -1.155596923828125, -0.699345703125, 10.0782421875
1520530732897266010, 0.1073253919301933, 0.021038972611625982, 0.04527373853134705, -1.1472143554687502, -0.73527099609375, 10.160870361328126
1520530732902283010, 0.11211908189233594, 0.014114753777419964, 0.035153726389045944, -1.140029296875, -0.7328759765625, 10.192005615234375
1520530732907299010, 0.11744540407249442, 0.007989483270237714, 0.023968449810713145, -1.153201904296875, -0.70892578125, 10.189610595703126
1520530732912314010, 0.1206411973805895, -0.0007989483270237715, 0.01597896654047543, -1.1268566894531251, -0.73527099609375, 10.237510986328125
1520530732917331010, 0.1206411973805895, -0.011451592687340724, 0.009321063815277334, -1.107696533203125, -0.731678466796875, 10.3129541015625
1520530732922346010, 0.12090751348959743, -0.021837920938649755, 0.007723167161229791, -1.086141357421875, -0.6933581542968751, 10.314151611328125
1520530732927364010, 0.11904330072654196, -0.02929477199087162, 0.01171790879634865, -1.093326416015625, -0.662222900390625, 10.414742431640626
1520530732932378010, 0.1161138235274548, -0.036218990825077645, 0.015712650431467506, -1.086141357421875, -0.604742431640625, 10.426717529296875
1520530732937395010, 0.11211908189233594, -0.04181162911424404, 0.019707392066586366, -1.0346484375, -0.611927490234375, 10.4374951171875
1520530732942410010, 0.10652644360316954, -0.036218990825077645, 0.02716424311880823, -1.148411865234375, -0.5652246093750001, 10.417137451171875
1520530732947425010, 0.10040117309598728, -0.028762139772855775, 0.03249056529896671, -1.2466076660156251, -0.528101806640625, 10.448272705078125
1520530732952441010, 0.09667274756987636, -0.02210423704765768, 0.03648530693408557, -1.239422607421875, -0.52929931640625, 10.459050292968751
1520530732957458010, 0.09028116095368618, -0.011185276578332801, 0.039681100242180654, -1.21906494140625, -0.49337402343750003, 10.429112548828126
1520530732962472010, 0.0814927293564247, -0.0005326322180158477, 0.04420847409531536, -1.149609375, -0.477806396484375, 10.359656982421875
1520530732967489010, 0.07643272328527415, 0.007456851052221868, 0.04846953183944214, -1.0406359863281252, -0.46343627929687503, 10.368039550781251
1520530732972504010, 0.06844324001503643, 0.009321063815277334, 0.05459480234662439, -1.04183349609375, -0.45265869140625004, 10.414742431640626
1520530732977521010, 0.061519021180830406, 0.010918960469324878, 0.06098638896281456, -1.04183349609375, -0.42870849609375, 10.457852783203126
1520530732982537010, 0.05299690569257685, 0.006125270507182248, 0.06631271114297303, -1.0394384765625, -0.39517822265625, 10.490185546875
1520530732987553010, 0.04234426133225989, 0.0021305288720633907, 0.06870955612404435, -1.0454260253906251, -0.4071533203125, 10.486593017578125
1520530732992568010, 0.03302319751698256, 0.001864212763055467, 0.07004113666908397, -1.059796142578125, -0.398770751953125, 10.518925781250001
1520530732997583010, 0.019707392066586366, 0.006391586616190172, 0.07137271721412358, -1.082548828125, -0.360450439453125, 10.58838134765625
1520530733002600010, 0.006391586616190172, 0.013049489341388268, 0.07243798165015529, -1.0753637695312501, -0.336500244140625, 10.615924072265626
1520530733007616010, -0.004793689962142629, 0.018908443739562592, 0.07297061386817114, -1.09452392578125, -0.34129028320312504, 10.668614501953126
1520530733012631010, -0.019174759848570515, 0.02423476591972107, 0.07163903332313151, -1.0753637695312501, -0.355660400390625, 10.6290966796875
1520530733017648010, -0.033555829734998405, 0.025300030355752765, 0.07217166554114736, -1.0023156738281251, -0.36284545898437504, 10.660231933593751
1520530733022663010, -0.043143209659283664, 0.02822950755483993, 0.07536745884924245, -1.035845947265625, -0.38080810546875005, 10.59556640625
1520530733027679010, -0.05406217012860854, 0.0290284558818637, 0.07882956826634546, -1.0011181640625, -0.3975732421875, 10.571616210937501
1520530733032695010, -0.06578007892495719, 0.029561088099879545, 0.08175904546543261, -0.9915380859375, -0.40356079101562503, 10.5237158203125
1520530733037711010, -0.07510114274023452, 0.02822950755483993, 0.08761799986360694, -1.011895751953125, -0.444276123046875, 10.484197998046875
1520530733042728010, -0.08202536157444054, 0.02982740420888747, 0.09693906367888427, -1.0681787109375, -0.449066162109375, 10.477012939453125
1520530733047742010, -0.0860201032095594, 0.03062635253591124, 0.09986854087797144, -1.124461669921875, -0.51013916015625, 10.43989013671875
1520530733052757010, -0.08548747099154355, 0.03142530086293501, 0.09773801200590805, -1.191522216796875, -0.506546630859375, 10.359656982421875
1520530733057775010, -0.08229167768344847, 0.02982740420888747, 0.09081379317170203, -1.249002685546875, -0.5077441406250001, 10.326126708984376
1520530733062789010, -0.07696535550328999, 0.0290284558818637, 0.08282430990146432, -1.201102294921875, -0.477806396484375, 10.29139892578125
1520530733067806010, -0.07030745277809189, 0.02822950755483993, 0.0737695621951949, -1.136436767578125, -0.4646337890625, 10.29618896484375
1520530733072822010, -0.06524744670694134, 0.03062635253591124, 0.06471481448892549, -1.1448193359375, -0.4358935546875, 10.328521728515625
1520530733077838010, -0.055926382891664, 0.02849582366384785, 0.05459480234662439, -1.119671630859375, -0.43230102539062504, 10.339299316406251
1520530733082853010, -0.0468716351853946, 0.027430559227816155, 0.048203215730434214, -1.095721435546875, -0.3975732421875, 10.448272705078125
1520530733087869010, -0.0391484680241648, 0.024501082028728992, 0.04367584187729951, -1.0777587890625, -0.34727783203125, 10.486593017578125
1520530733092884010, -0.03328951362599048, 0.01944107595757844, 0.0391484680241648, -1.0669812011718751, -0.34129028320312504, 10.5237158203125
1520530733097900010, -0.03222424918995878, 0.014381069886427887, 0.037017939152101415, -1.06578369140625, -0.336500244140625, 10.601553955078126
1520530733102917010, -0.0346210941710301, 0.009054747706269411, 0.0346210941710301, -1.055006103515625, -0.38080810546875005, 10.618319091796875
1520530733107932010, -0.037017939152101415, 0.0029294771990871623, 0.035153726389045944, -1.088536376953125, -0.437091064453125, 10.6290966796875
1520530733112947010, -0.040480048569204424, -0.005326322180158476, 0.039681100242180654, -1.114881591796875, -0.45146118164062504, 10.630294189453126
1520530733117964010, -0.047404267403410444, -0.007190534943213944, 0.043942157986307434, -1.1304492187500002, -0.494571533203125, 10.593171386718751
1520530733122980010, -0.05379585401960062, -0.0055926382891664005, 0.047404267403410444, -1.1903247070312502, -0.530496826171875, 10.55964111328125
1520530733127996010, -0.05779059565471947, -0.003195793308095086, 0.04767058351241837, -1.17116455078125, -0.559237060546875, 10.473420410156251
1520530733133011010, -0.06205165339884625, 0.00026631610900792384, 0.043942157986307434, -1.1987072753906252, -0.59396484375, 10.43989013671875
1520530733138028010, -0.06551376281594927, 0.001597896654047543, 0.04367584187729951, -1.210682373046875, -0.626297607421875, 10.42552001953125
1520530733143043010, -0.0692421883420602, 0.004527373853134706, 0.0391484680241648, -1.2070898437500002, -0.622705078125, 10.395582275390625
1520530733148058010, -0.0727042977591632, 0.007723167161229791, 0.03302319751698256, -1.19990478515625, -0.6358776855468751, 10.438692626953125
1520530733153076010, -0.07297061386817114, 0.004527373853134706, 0.030892668644919165, -1.2118798828125001, -0.65384033203125, 10.443482666015626
1520530733158092010, -0.07456851052221868, 0.003728425526110934, 0.02849582366384785, -1.2118798828125001, -0.6179150390625, 10.451865234375001
1520530733163105010, -0.07696535550328999, 0.003994741635118857, 0.028762139772855775, -1.155596923828125, -0.611927490234375, 10.45426025390625
1520530733168123010, -0.08255799379245639, 0.001331580545039619, 0.03142530086293501, -1.167572021484375, -0.6251000976562501, 10.471025390625
1520530733173139010, -0.08255799379245639, 0.0007989483270237715, 0.030360036426903318, -1.193917236328125, -0.6358776855468751, 10.465037841796876
1520530733178154010, -0.08575378710055148, 0.0, 0.031691616971942935, -1.136436767578125, -0.71611083984375, 10.518925781250001
1520530733183170010, -0.09347695426178126, 0.001331580545039619, 0.03382214584400633, -1.1088940429687502, -0.69695068359375, 10.505753173828126
1520530733188187010, -0.09747169589690012, 0.002663161090079238, 0.033555829734998405, -1.1436218261718751, -0.731678466796875, 10.477012939453125
1520530733193202010, -0.10093380531400313, 0.005858954398174325, 0.033555829734998405, -1.20469482421875, -0.74006103515625, 10.406359863281251
1520530733198218010, -0.10466223084011407, 0.011984224905356573, 0.030892668644919165, -1.2166699218750001, -0.73527099609375, 10.390792236328126
1520530733203233010, -0.10892328858424084, 0.018109495412538822, 0.023968449810713145, -1.2549902343750001, -0.73527099609375, 10.314151611328125
1520530733208250010, -0.10865697247523293, 0.021837920938649755, 0.01597896654047543, -1.205892333984375, -0.7173083496093751, 10.306966552734375
1520530733213264010, -0.1105211852382884, 0.023968449810713145, 0.007190534943213944, -1.213077392578125, -0.750838623046875, 10.33450927734375
1520530733218281010, -0.10998855302027255, 0.02077265650261806, -0.001597896654047543, -1.22385498046875, -0.71611083984375, 10.315349121093751
1520530733223297010, -0.10998855302027255, 0.01944107595757844, -0.01038632825130903, -1.1951147460937501, -0.6574328613281251, 10.286608886718751
1520530733228312010, -0.1094559208022567, 0.015712650431467506, -0.017044230976507126, -1.205892333984375, -0.6634204101562501, 10.31055908203125
1520530733233329010, -0.10492854694912199, 0.008788431597261486, -0.023968449810713145, -1.193917236328125, -0.645457763671875, 10.304571533203125
1520530733238344010, -0.10226538585904275, 0.005326322180158476, -0.02982740420888747, -1.1987072753906252, -0.631087646484375, 10.308164062500001
1520530733243360010, -0.09853696033293181, -0.0005326322180158477, -0.034354778062022175, -1.1867321777343751, -0.6251000976562501, 10.306966552734375
1520530733248375010, -0.09347695426178126, -0.009054747706269411, -0.037816887479125184, -1.1520043945312501, -0.6274951171875001, 10.326126708984376
1520530733253392010, -0.09001484484467825, -0.010918960469324878, -0.04101268078722027, -1.114881591796875, -0.61552001953125, 10.369237060546876
1520530733258408010, -0.08362325822848808, -0.015446334322459582, -0.04234426133225989, -1.1136840820312501, -0.63228515625, 10.3704345703125
1520530733263423010, -0.07723167161229791, -0.017044230976507126, -0.04767058351241837, -1.0538085937500001, -0.623902587890625, 10.359656982421875
1520530733268440010, -0.06977482056007604, -0.01731054708551505, -0.051665325147537224, -1.0406359863281252, -0.592767333984375, 10.374027099609375
1520530733273455010, -0.062317969507854176, -0.014381069886427887, -0.051665325147537224, -1.0789562988281252, -0.5376818847656251, 10.417137451171875
1520530733278471010, -0.05459480234662439, -0.01384843766841204, -0.05299690569257685, -1.04662353515625, -0.48259643554687504, 10.4087548828125
1520530733283487010, -0.05219795736555307, -0.009587379924285258, -0.0513990090385293, -1.02267333984375, -0.46104125976562504, 10.44468017578125
1520530733288503010, -0.04713795129440252, -0.004527373853134706, -0.04767058351241837, -1.0777587890625, -0.44307861328125003, 10.4614453125
1520530733293518010, -0.039681100242180654, -0.0055926382891664005, -0.043143209659283664, -1.110091552734375, -0.449066162109375, 10.427915039062501
1520530733298533010, -0.033555829734998405, -0.01038632825130903, -0.0391484680241648, -1.088536376953125, -0.46702880859375, 10.441087646484375
1520530733303550010, -0.02822950755483993, -0.01597896654047543, -0.03675162304309349, -1.112486572265625, -0.4742138671875, 10.4374951171875
1520530733308566010, -0.019174759848570515, -0.022370553156665602, -0.03568635860706179, -1.114881591796875, -0.5185217285156251, 10.409952392578125
1520530733313581010, -0.013049489341388268, -0.03142530086293501, -0.03488741028003802, -1.1053015136718751, -0.561632080078125, 10.38240966796875
1520530733318598010, -0.005060006071150553, -0.0346210941710301, -0.03755057137011726, -1.149609375, -0.5736071777343751, 10.383607177734376
1520530733323614010, 0.004261057744126781, -0.039681100242180654, -0.04234426133225989, -1.129251708984375, -0.6382727050781251, 10.32971923828125
1520530733328629010, 0.014381069886427887, -0.04340952576829159, -0.04926848016646591, -1.120869140625, -0.702938232421875, 10.339299316406251
1520530733333646010, 0.0234358175926973, -0.04527373853134705, -0.05672533121868778, -1.1520043945312501, -0.6957531738281251, 10.340496826171876
1520530733338661010, 0.03302319751698256, -0.04633900296737875, -0.06444849837991756, -1.2214599609375, -0.7340734863281251, 10.3129541015625
1520530733343677010, 0.04261057744126781, -0.0458063707493629, -0.07323692997717905, -1.253792724609375, -0.738863525390625, 10.287806396484376
1520530733348692010, 0.053529537910592694, -0.04607268685837083, -0.07803061993932169, -1.217867431640625, -0.7125183105468751, 10.213560791015626
1520530733353709010, 0.06285060172587002, -0.043143209659283664, -0.07669903939428206, -1.179547119140625, -0.71611083984375, 10.19080810546875
1520530733358724010, 0.0727042977591632, -0.038615835806148954, -0.07323692997717905, -1.098116455078125, -0.7939489746093751, 10.239906005859375
1520530733363740010, 0.08229167768344847, -0.030093720317895395, -0.06125270507182248, -1.009500732421875, -0.8969348144531251, 10.251881103515625
1520530733368756010, 0.09693906367888427, -0.021038972611625982, -0.045540054640354974, -1.071771240234375, -0.8646020507812501, 10.299781494140625
1520530733373772010, 0.10785802414820915, -0.016245282649483356, -0.028762139772855775, -1.05141357421875, -0.85981201171875, 10.31055908203125
1520530733378788010, 0.12117382959860534, -0.012783173232380344, -0.014114753777419964, -1.035845947265625, -0.887354736328125, 10.242301025390626
1520530733383804010, 0.13342437061296986, -0.012783173232380344, -0.0005326322180158477, -1.004710693359375, -0.8777746582031251, 10.215955810546875
1520530733388819010, 0.14807175660840566, -0.014114753777419964, 0.011451592687340724, -1.09452392578125, -0.9077124023437501, 10.151290283203126
1520530733393835010, 0.164317039257889, -0.01864212763055467, 0.018908443739562592, -1.12326416015625, -0.8957373046875, 10.159672851562501
1520530733398851010, 0.17843179303530898, -0.025300030355752765, 0.02636529479178446, -0.9627978515625001, -0.871787109375, 10.261461181640625
1520530733403867010, 0.19467707568479234, -0.020240024284602212, 0.03648530693408557, -1.035845947265625, -0.8190966796875, 10.315349121093751
1520530733408883010, 0.20506340393610137, -0.013582121559404116, 0.04287689355027574, -1.043031005859375, -0.748443603515625, 10.369237060546876
1520530733413898010, 0.21624868051443416, -0.004527373853134706, 0.05326322180158477, -1.098116455078125, -0.689765625, 10.420729980468751
1520530733418915010, 0.22956448596483034, 0.004793689962142629, 0.06045375674479871, -1.141226806640625, -0.6514453125, 10.43989013671875
1520530733423930010, 0.2402171303251473, 0.01997370817559429, 0.0636495500528938, -1.1651770019531251, -0.63468017578125, 10.486593017578125
1520530733428946010, 0.24794029748637708, 0.035153726389045944, 0.0692421883420602, -1.16158447265625, -0.647852783203125, 10.467432861328126
1520530733433962010, 0.2545982002115752, 0.046605319076386674, 0.07510114274023452, -1.13284423828125, -0.63228515625, 10.44468017578125
1520530733438978010, 0.2668487412259397, 0.061519021180830406, 0.08282430990146432, -1.095721435546875, -0.5975573730468751, 10.421927490234376
1520530733443994010, 0.2748382244961774, 0.07030745277809189, 0.09108010928070995, -1.076561279296875, -0.587977294921875, 10.381212158203125
1520530733449010010, 0.28336033998443094, 0.07643272328527415, 0.09880327644193974, -1.1053015136718751, -0.5891748046875, 10.371632080078125
1520530733454025010, 0.2961435132168113, 0.07616640717626622, 0.10626012749416161, -1.110091552734375, -0.59156982421875, 10.293793945312501
1520530733459041010, 0.31025826699423126, 0.06977482056007604, 0.11211908189233594, -1.1053015136718751, -0.626297607421875, 10.2315234375
1520530733464056010, 0.32703618186173045, 0.05858954398174324, 0.11744540407249442, -1.13763427734375, -0.650247802734375, 10.187215576171875
1520530733469073010, 0.3451456772742693, 0.04607268685837083, 0.1195759329445578, -1.117276611328125, -0.6251000976562501, 10.177635498046875
1520530733474088010, 0.360325695487721, 0.03542004249805387, 0.12170646181662119, -1.1735595703125001, -0.643062744140625, 10.17643798828125
1520530733479104010, 0.3768372942462122, 0.03062635253591124, 0.12117382959860534, -1.1987072753906252, -0.622705078125, 10.2075732421875
1520530733484120010, 0.39601205409478274, 0.03249056529896671, 0.12010856516257365, -1.197509765625, -0.6358776855468751, 10.2315234375
1520530733489135010, 0.41065944009021854, 0.03648530693408557, 0.1161138235274548, -1.235830078125, -0.6658154296875001, 10.332114257812501
1520530733494151010, 0.42131208445053553, 0.039681100242180654, 0.11424961076439932, -1.268162841796875, -0.621507568359375, 10.445877685546876
1520530733499169010, 0.42956788382978117, 0.04420847409531536, 0.10998855302027255, -1.260977783203125, -0.5843847656250001, 10.52132080078125
1520530733504184010, 0.43542683822795547, 0.04767058351241837, 0.11078750134729631, -1.2286450195312502, -0.525706787109375, 10.563233642578126
1520530733509198010, 0.4364921026639872, 0.05113269292952138, 0.11345066243737556, -1.155596923828125, -0.48139892578125004, 10.601553955078126
1520530733514214010, 0.4367584187729951, 0.05752427954571155, 0.11584750741844686, -1.162781982421875, -0.46702880859375, 10.659034423828125
1520530733519231010, 0.4367584187729951, 0.06604639503396512, 0.11824435239951818, -1.136436767578125, -0.501756591796875, 10.730885009765625
1520530733524247010, 0.4308994643748208, 0.07616640717626622, 0.11824435239951818, -1.12326416015625, -0.501756591796875, 10.75603271484375
1520530733529262010, 0.4242415616496227, 0.08522115488253562, 0.1206411973805895, -1.10410400390625, -0.530496826171875, 10.819500732421876
1520530733534279010, 0.4146541817253374, 0.09427590258880504, 0.12303804236166081, -1.055006103515625, -0.5484594726562501, 10.906918945312501
1520530733539295010, 0.402137324601965, 0.10013485698697937, 0.12330435847066874, -1.08015380859375, -0.55564453125, 10.965596923828125
1520530733544310010, 0.3853594097344658, 0.10439591473110614, 0.1227717262526529, -1.090931396484375, -0.5125341796875, 10.997929687500001
1520530733549326010, 0.363787804904824, 0.11132013356531216, 0.12490225512471628, -1.1112890625, -0.513731689453125, 11.054212646484375
1520530733554341010, 0.3416835678571663, 0.11797803629051026, 0.12303804236166081, -1.131646728515625, -0.468226318359375, 11.035052490234376
1520530733559358010, 0.3195793308095086, 0.12543488734273212, 0.12357067457967666, -1.2118798828125001, -0.386795654296875, 11.042237548828126
1520530733564373010, 0.29534456488978755, 0.13608753170304907, 0.11904330072654196, -1.2801379394531252, -0.34368530273437503, 10.99553466796875
1520530733569389010, 0.27004453453403476, 0.14460964719130265, 0.11158644967432009, -1.354383544921875, -0.28380981445312503, 10.929671630859376
1520530733574406010, 0.2455434525053058, 0.15233281435253243, 0.10146643753201898, -1.397493896484375, -0.29458740234375, 10.873388671875
1520530733579421010, 0.22157500269459263, 0.1563275559876513, 0.08921589651765449, -1.4082714843750002, -0.258662109375, 10.801538085937501
1520530733584437010, 0.2010686623009825, 0.15446334322459582, 0.0782969360483296, -1.3998889160156252, -0.22273681640625, 10.77519287109375
1520530733589453010, 0.17923074136233275, 0.14567491162733434, 0.06444849837991756, -1.4465917968750002, -0.144898681640625, 10.771600341796876
1520530733594468010, 0.1565938720966592, 0.12783173232380343, 0.050866376820513454, -1.49688720703125, -0.0814306640625, 10.70813232421875
1520530733599485010, 0.13422331893999362, 0.09960222476896352, 0.03488741028003802, -1.495689697265625, -0.034727783203125, 10.71771240234375
1520530733604500010, 0.11078750134729631, 0.07456851052221868, 0.0234358175926973, -1.4765295410156252, 0.029937744140625, 10.711724853515626
1520530733609516010, 0.08415589044650393, 0.04607268685837083, 0.014114753777419964, -1.52562744140625, 0.034727783203125, 10.651849365234376
1520530733614531010, 0.05672533121868778, 0.017576863194522972, 0.006391586616190172, -1.4992822265625, 0.0047900390625, 10.668614501953126
1520530733619548010, 0.027963191445832, -0.0029294771990871623, -0.001331580545039619, -1.5579602050781252, 0.06466552734375, 10.668614501953126
1520530733624564010, -0.0023968449810713144, -0.023169501483689375, -0.007723167161229791, -1.5711328125000001, 0.1149609375, 10.65065185546875
1520530733629579010, -0.03195793308095086, -0.03755057137011726, -0.012250541014364496, -1.5531701660156252, 0.045505371093750004, 10.738070068359375
1520530733634595010, -0.062317969507854176, -0.04846953183944214, -0.014114753777419964, -1.5471826171875, 0.032332763671875, 10.794353027343751
1520530733639611010, -0.09347695426178126, -0.051665325147537224, -0.01384843766841204, -1.57352783203125, -0.022752685546875002, 10.870993652343751
1520530733644626010, -0.1283643645418193, -0.05432848623761646, -0.013315805450396193, -1.53999755859375, -0.116158447265625, 10.9548193359375
1520530733649643010, -0.16325177482185732, -0.0569916473276957, -0.014913702104443736, -1.4418017578125, -0.15208374023437501, 11.0027197265625
1520530733654658010, -0.19627497233883986, -0.05512743456464023, -0.014913702104443736, -1.33881591796875, -0.19399658203125, 11.0027197265625
1520530733659674010, -0.23036343429185413, -0.055926382891664, -0.01597896654047543, -1.23822509765625, -0.267044677734375, 10.973979492187501
1520530733664689010, -0.25965820628272573, -0.05193164125654515, -0.009853696033293183, -1.1903247070312502, -0.28740234375, 10.93326416015625
1520530733669706010, -0.2852245527474864, -0.04340952576829159, -0.008522115488253563, -1.265767822265625, -0.243094482421875, 10.874586181640625
1520530733674722010, -0.32224249189958787, -0.04287689355027574, -0.015446334322459582, -1.3268408203125002, -0.30416748046875003, 10.9260791015625
1520530733679738010, -0.3328951362599048, -0.029561088099879545, -0.025033714246744842, -1.371148681640625, -0.21555175781250002, 10.745255126953126
1520530733684754010, -0.353135160544507, -0.02849582366384785, -0.03408846195301425, -1.3867163085937502, -0.12214599609375, 10.632689208984376
1520530733689770010, -0.3699130754120062, -0.0290284558818637, -0.04287689355027574, -1.34360595703125, -0.037122802734375, 10.65544189453125
1520530733694784010, -0.37950045533629145, -0.025832662573768612, -0.05326322180158477, -1.2801379394531252, -0.0431103515625, 10.632689208984376
1520530733699801010, -0.38296256475339446, -0.01944107595757844, -0.05858954398174324, -1.289718017578125, -0.052690429687500005, 10.589578857421875
1520530733704817010, -0.39068573191462425, -0.016777914867499202, -0.06737797557900473, -1.4178515625, -0.06586303710937501, 10.644664306640626
1520530733709833010, -0.38456046140744204, -0.00346210941710301, -0.07882956826634546, -1.555565185546875, -0.11256591796875001, 10.61712158203125
1520530733714848010, -0.3821636164263707, 0.0055926382891664005, -0.0905474770626941, -1.572330322265625, -0.128133544921875, 10.546468505859375
1520530733719864010, -0.3768372942462122, 0.013049489341388268, -0.09986854087797144, -1.505269775390625, -0.1580712890625, 10.540480957031251
1520530733724880010, -0.367249914321927, 0.019174759848570515, -0.10306433418606653, -1.36037109375, -0.24668701171875002, 10.481802978515626
1520530733729896010, -0.3581951666156576, 0.01731054708551505, -0.10199906975003482, -1.29570556640625, -0.36284545898437504, 10.399174804687501
1520530733734913010, -0.3494067350183961, 0.009321063815277334, -0.0982706442239239, -1.2466076660156251, -0.439486083984375, 10.32971923828125
1520530733739927010, -0.33688987789502367, -0.00346210941710301, -0.0860201032095594, -1.1160791015625, -0.536484375, 10.3033740234375
1520530733744943010, -0.32224249189958787, -0.01997370817559429, -0.06791060779702057, -1.071771240234375, -0.5736071777343751, 10.237510986328125
1520530733749960010, -0.31185616364827884, -0.04101268078722027, -0.051665325147537224, -0.98914306640625, -0.631087646484375, 10.220745849609376
1520530733754975010, -0.29561088099879546, -0.05193164125654515, -0.030093720317895395, -1.04183349609375, -0.6634204101562501, 10.172845458984375
1520530733759991010, -0.2783003339132804, -0.060720072853806636, -0.006657902725198096, -1.0837463378906251, -0.7137158203125, 10.1500927734375
1520530733765006010, -0.25779399351967025, -0.06764429168801266, 0.015712650431467506, -1.146016845703125, -0.7472460937500001, 10.10458740234375
1520530733770024010, -0.23409185981796504, -0.07243798165015529, 0.037017939152101415, -1.140029296875, -0.74006103515625, 10.098599853515626
1520530733775038010, -0.20985709389824397, -0.07190534943213944, 0.05539375067364816, -1.09452392578125, -0.718505859375, 10.1405126953125
1520530733780055010, -0.18508969576050707, -0.07403587830420283, 0.07297061386817114, -1.1112890625, -0.686173095703125, 10.093809814453126
1520530733785070010, -0.15792545264169883, -0.0759000910672583, 0.08628641931856733, -1.1268566894531251, -0.6765930175781251, 10.0782421875
1520530733790086010, -0.12436962290670044, -0.0759000910672583, 0.0937432703707892, -1.1352392578125001, -0.680185546875, 10.03752685546875
1520530733795101010, -0.09294432204376542, -0.07350324608618698, 0.09773801200590805, -1.1543994140625, -0.6167175292968751, 10.07105712890625
1520530733800118010, -0.06125270507182248, -0.06471481448892549, 0.09853696033293181, -1.2214599609375, -0.566422119140625, 10.115364990234376
1520530733805134010, -0.02769687533682408, -0.0513990090385293, 0.09560748313384466, -1.23822509765625, -0.561632080078125, 10.158475341796876
1520530733810150010, 0.004261057744126781, -0.036218990825077645, 0.0849548387735277, -1.251397705078125, -0.49337402343750003, 10.124945068359375
1520530733815164010, 0.03595267471606972, -0.02077265650261806, 0.07430219441321075, -1.244212646484375, -0.46702880859375, 10.106982421875001
1520530733820181010, 0.06737797557900473, 0.00026631610900792384, 0.060720072853806636, -1.2597802734375, -0.41314086914062503, 10.172845458984375
1520530733825197010, 0.09747169589690012, 0.018908443739562592, 0.04767058351241837, -1.227447509765625, -0.427510986328125, 10.193203125
1520530733830212010, 0.12570120345174005, 0.03755057137011726, 0.033555829734998405, -1.2549902343750001, -0.48020141601562505, 10.159672851562501
1520530733835229010, 0.15393071100657998, 0.053529537910592694, 0.01997370817559429, -1.2214599609375, -0.5077441406250001, 10.193203125
1520530733840244010, 0.1776328447082852, 0.06178533728983833, 0.011984224905356573, -1.1520043945312501, -0.547261962890625, 10.260263671875
1520530733845260010, 0.20053603008296664, 0.06578007892495719, 0.007456851052221868, -1.0921289062500001, -0.55564453125, 10.300979003906251
1520530733850277010, 0.21731394495046585, 0.06764429168801266, 0.003195793308095086, -1.090931396484375, -0.592767333984375, 10.294991455078126
1520530733855292010, 0.2311623826188779, 0.06791060779702057, 0.0021305288720633907, -1.1268566894531251, -0.6550378417968751, 10.32492919921875
1520530733860307010, 0.23968449810713147, 0.06471481448892549, -0.001597896654047543, -1.0681787109375, -0.6849755859375001, 10.406359863281251
1520530733865322010, 0.2436792397422503, 0.06791060779702057, -0.001864212763055467, -1.0071057128906251, -0.7831713867187501, 10.46863037109375
1520530733870340010, 0.24607608472332163, 0.07323692997717905, 0.003994741635118857, -0.9915380859375, -0.8071215820312501, 10.5141357421875
1520530733875356010, 0.2458097686143137, 0.07403587830420283, 0.009321063815277334, -1.05141357421875, -0.756826171875, 10.524913330078126
1520530733880371010, 0.24261397530621862, 0.080427464920393, 0.009853696033293183, -1.1053015136718751, -0.67779052734375, 10.596763916015625
1520530733885388010, 0.23515712425399674, 0.08815063208162278, 0.0055926382891664005, -1.120869140625, -0.536484375, 10.662626953125
1520530733890403010, 0.23169501483689373, 0.10066748920499521, 0.0055926382891664005, -1.1951147460937501, -0.44068359375000005, 10.706934814453126
1520530733895418010, 0.2247707960026877, 0.11078750134729631, -0.002663161090079238, -1.3364208984375001, -0.3209326171875, 10.681787109375001
1520530733900434010, 0.21811289327748962, 0.11318434632836763, -0.014114753777419964, -1.33881591796875, -0.258662109375, 10.643466796875
1520530733905450010, 0.20932446168022814, 0.11371697854638348, -0.024501082028728992, -1.222657470703125, -0.21555175781250002, 10.6099365234375
1520530733910466010, 0.20186761062800626, 0.10439591473110614, -0.02982740420888747, -1.1687695312500002, -0.204774169921875, 10.56443115234375
1520530733915481010, 0.1920139145947131, 0.09321063815277335, -0.031691616971942935, -1.172362060546875, -0.24548950195312502, 10.5380859375
1520530733920497010, 0.1808286380163803, 0.07536745884924245, -0.03488741028003802, -1.1520043945312501, -0.29937744140625, 10.540480957031251
1520530733925513010, 0.17177389031011087, 0.05432848623761646, -0.037816887479125184, -1.1927197265625, -0.307760009765625, 10.481802978515626
1520530733930529010, 0.16325177482185732, 0.03408846195301425, -0.03648530693408557, -1.2310400390625, -0.316142578125, 10.402767333984375
1520530733935545010, 0.15020228548046904, 0.013582121559404116, -0.03834951969714103, -1.2645703125, -0.31374755859375003, 10.37282958984375
1520530733940561010, 0.14034858944717588, -0.006125270507182248, -0.03888215191515688, -1.3148657226562501, -0.33769775390625, 10.336904296875
1520530733945576010, 0.12783173232380343, -0.02556634646476069, -0.04154531300523612, -1.325643310546875, -0.358055419921875, 10.302176513671876
1520530733950594010, 0.11717908796348649, -0.037816887479125184, -0.037816887479125184, -1.32923583984375, -0.35206787109375004, 10.32971923828125
1520530733955609010, 0.10626012749416161, -0.0458063707493629, -0.03675162304309349, -1.299298095703125, -0.384400634765625, 10.345286865234376
1520530733960625010, 0.09294432204376542, -0.05486111845563231, -0.032756881407974635, -1.2549902343750001, -0.44188110351562504, 10.402767333984375
1520530733965639010, 0.07856325215733753, -0.05965480841777494, -0.02556634646476069, -1.217867431640625, -0.5185217285156251, 10.42552001953125
1520530733970656010, 0.06524744670694134, -0.06578007892495719, -0.015180018213451659, -1.149609375, -0.547261962890625, 10.494975585937501
1520530733975673010, 0.05432848623761646, -0.06764429168801266, -0.003728425526110934, -1.107696533203125, -0.5604345703125, 10.51653076171875
1520530733980688010, 0.04287689355027574, -0.07004113666908397, 0.012783173232380344, -1.112486572265625, -0.599952392578125, 10.556048583984376
1520530733985703010, 0.02982740420888747, -0.07110640110511567, 0.032756881407974635, -1.0873388671875, -0.5975573730468751, 10.600356445312501
1520530733990720010, 0.018109495412538822, -0.07243798165015529, 0.050067428493489684, -1.12326416015625, -0.6274951171875001, 10.5237158203125
1520530733995734010, 0.011984224905356573, -0.06950850445106813, 0.07004113666908397, -1.178349609375, -0.6741979980468751, 10.488988037109376
1520530734000751010, 0.007989483270237714, -0.0681769239060285, 0.08681905153658317, -1.148411865234375, -0.650247802734375, 10.459050292968751
1520530734005767010, 0.0055926382891664005, -0.06657902725198096, 0.1027980180770586, -1.18074462890625, -0.62031005859375, 10.4374951171875
1520530734010783010, 0.006391586616190172, -0.06657902725198096, 0.11984224905356573, -1.169967041015625, -0.58198974609375, 10.40156982421875
1520530734015798010, 0.007190534943213944, -0.06897587223305228, 0.13715279613908077, -1.1543994140625, -0.5783972167968751, 10.3848046875
1520530734020815010, 0.010120012142301106, -0.07563377495825037, 0.14940333715344528, -1.1136840820312501, -0.5412744140625, 10.368039550781251
1520530734025831010, 0.014913702104443736, -0.08255799379245639, 0.16405072314888108, -1.082548828125, -0.530496826171875, 10.332114257812501
1520530734030847010, 0.021038972611625982, -0.08655273542757524, 0.17923074136233275, -1.112486572265625, -0.536484375, 10.36324951171875
1520530734035862010, 0.02689792700980031, -0.08708536764559109, 0.19041601794066554, -1.12326416015625, -0.5053491210937501, 10.3848046875
1520530734040877010, 0.035153726389045944, -0.08362325822848808, 0.19707392066586363, -1.196312255859375, -0.45984375, 10.413544921875001
1520530734045893010, 0.04154531300523612, -0.07749798772130584, 0.19707392066586363, -1.2466076660156251, -0.43110351562500004, 10.427915039062501
1520530734050910010, 0.04633900296737875, -0.06338323394388587, 0.19148128237669723, -1.260977783203125, -0.36164794921875004, 10.441087646484375
1520530734055926010, 0.05379585401960062, -0.04980111238448176, 0.1832254829974516, -1.2502001953125002, -0.296982421875, 10.466235351562501
1520530734060942010, 0.05752427954571155, -0.03808320358813311, 0.1744370514001901, -1.2214599609375, -0.26345214843750003, 10.44228515625
1520530734065956010, 0.060720072853806636, -0.02636529479178446, 0.1629854587128494, -1.184337158203125, -0.24668701171875002, 10.505753173828126
1520530734070973010, 0.06444849837991756, -0.015180018213451659, 0.15419702711558791, -1.174757080078125, -0.199984130859375, 10.52132080078125
1520530734075988010, 0.07163903332313151, -0.007456851052221868, 0.14594122773634227, -1.1220666503906251, -0.20836669921875, 10.51653076171875
1520530734081005010, 0.07297061386817114, -0.003195793308095086, 0.13954964112015208, -1.0969189453125001, -0.19878662109375, 10.515333251953125
1520530734086020010, 0.07643272328527415, -0.0021305288720633907, 0.13422331893999362, -1.095721435546875, -0.18441650390625, 10.587183837890626
1520530734091038010, 0.07297061386817114, -0.005060006071150553, 0.12596751956074798, -1.169967041015625, -0.19160156250000002, 10.565628662109376
1520530734096052010, 0.0727042977591632, -0.0055926382891664005, 0.11771172018150233, -1.1304492187500002, -0.21674926757812502, 10.572813720703126
1520530734101068010, 0.07110640110511567, -0.004793689962142629, 0.11211908189233594, -1.0969189453125001, -0.23710693359375, 10.553653564453125
1520530734106085010, 0.0681769239060285, -0.005858954398174325, 0.10652644360316954, -1.08494384765625, -0.2682421875, 10.529703369140625
1520530734111100010, 0.06285060172587002, -0.00825579937924564, 0.1027980180770586, -1.1112890625, -0.316142578125, 10.488988037109376
1520530734116115010, 0.055926382891664, -0.013315805450396193, 0.09347695426178126, -1.028660888671875, -0.32332763671875003, 10.499765625
1520530734121132010, 0.04793689962142629, -0.019174759848570515, 0.0905474770626941, -1.011895751953125, -0.360450439453125, 10.51653076171875
1520530734126147010, 0.0391484680241648, -0.023702133701705222, 0.08788431597261487, -1.086141357421875, -0.38320312500000003, 10.487790527343751
1520530734131162010, 0.03062635253591124, -0.025300030355752765, 0.08309062601047223, -1.1053015136718751, -0.4071533203125, 10.48300048828125
1520530734136178010, 0.019707392066586366, -0.021837920938649755, 0.0759000910672583, -1.112486572265625, -0.41433837890625, 10.493778076171875
1520530734141195010, 0.009321063815277334, -0.017576863194522972, 0.06684534336098888, -1.117276611328125, -0.42870849609375, 10.460247802734376
1520530734146210010, 0.0005326322180158477, -0.011984224905356573, 0.05912217619975909, -1.112486572265625, -0.45026367187500005, 10.45426025390625
1520530734151227010, -0.005858954398174325, -0.005858954398174325, 0.049002164057457984, -1.157991943359375, -0.49576904296875, 10.378817138671875
1520530734156242010, -0.01384843766841204, 0.0007989483270237715, 0.03888215191515688, -1.2202624511718752, -0.51013916015625, 10.318941650390625
1520530734161258010, -0.018375811521546746, 0.00692421883420602, 0.02849582366384785, -1.1879296875, -0.5376818847656251, 10.35845947265625
1520530734166273010, -0.025300030355752765, 0.01944107595757844, 0.01864212763055467, -1.0370434570312501, -0.5748046875, 10.4087548828125
1520530734171289010, -0.02689792700980031, 0.03249056529896671, 0.01651159875849128, -1.009500732421875, -0.561632080078125, 10.453062744140626
1520530734176306010, -0.027430559227816155, 0.04287689355027574, 0.01464738599543581, -1.16158447265625, -0.56282958984375, 10.431507568359375
1520530734181321010, -0.025832662573768612, 0.04607268685837083, 0.011451592687340724, -1.1903247070312502, -0.5951623535156251, 10.41114990234375
1520530734186337010, -0.02077265650261806, 0.04926848016646591, 0.009054747706269411, -1.1112890625, -0.564027099609375, 10.369237060546876
1520530734191353010, -0.016245282649483356, 0.05486111845563231, 0.012250541014364496, -1.09931396484375, -0.559237060546875, 10.32971923828125
1520530734196368010, -0.011185276578332801, 0.05992112452678287, 0.019707392066586366, -1.1005114746093752, -0.561632080078125, 10.356064453125
1520530734201385010, -0.00026631610900792384, 0.06764429168801266, 0.02822950755483993, -1.044228515625, -0.530496826171875, 10.28900390625
1520530734206401010, 0.006657902725198096, 0.06578007892495719, 0.038615835806148954, -0.97477294921875, -0.55324951171875, 10.3129541015625
1520530734211416010, 0.017576863194522972, 0.058855860090751166, 0.05113269292952138, -1.005908203125, -0.5077441406250001, 10.26265869140625
1520530734216432010, 0.02689792700980031, 0.053529537910592694, 0.05858954398174324, -1.052611083984375, -0.48618896484375, 10.241103515625001
1520530734221448010, 0.03994741635118858, 0.04926848016646591, 0.0636495500528938, -1.110091552734375, -0.437091064453125, 10.225535888671876
1520530734226464010, 0.047404267403410444, 0.044741106313331204, 0.0681769239060285, -1.1088940429687502, -0.40954833984375, 10.29618896484375
1520530734231480010, 0.0569916473276957, 0.042077945223251964, 0.0681769239060285, -1.114881591796875, -0.3879931640625, 10.25068359375
1520530734236496010, 0.06498113059793342, 0.03941478413317273, 0.06950850445106813, -1.1064990234375, -0.40954833984375, 10.2458935546875
1520530734241512010, 0.07084008499610774, 0.0391484680241648, 0.07084008499610774, -1.1005114746093752, -0.44307861328125003, 10.34408935546875
1520530734246526010, 0.08229167768344847, 0.03834951969714103, 0.07243798165015529, -1.082548828125, -0.4981640625, 10.315349121093751
1520530734251543010, 0.08841694819063071, 0.03808320358813311, 0.07030745277809189, -1.114881591796875, -0.48139892578125004, 10.3033740234375
1520530734256558010, 0.09800432811491597, 0.03941478413317273, 0.06604639503396512, -1.149609375, -0.4646337890625, 10.35845947265625
1520530734261576010, 0.1038632825130903, 0.043942157986307434, 0.05992112452678287, -1.14242431640625, -0.47660888671875, 10.369237060546876
1520530734266591010, 0.111852765783328, 0.053529537910592694, 0.05725796343670363, -1.136436767578125, -0.508941650390625, 10.352471923828125
1520530734271606010, 0.11744540407249442, 0.06205165339884625, 0.04926848016646591, -1.153201904296875, -0.494571533203125, 10.383607177734376
1520530734276622010, 0.13049489341388268, 0.06870955612404435, 0.04261057744126781, -1.196312255859375, -0.45385620117187503, 10.41114990234375
1520530734281638010, 0.13555489948503324, 0.0727042977591632, 0.0346210941710301, -1.2070898437500002, -0.437091064453125, 10.424322509765625
1520530734286654010, 0.14034858944717588, 0.07483482663122659, 0.027963191445832, -1.1831396484375, -0.38080810546875005, 10.438692626953125
1520530734291669010, 0.1472728082813819, 0.07297061386817114, 0.025033714246744842, -1.1064990234375, -0.335302734375, 10.471025390625
1520530734296685010, 0.14966965326245318, 0.06791060779702057, 0.023702133701705222, -1.098116455078125, -0.350870361328125, 10.46863037109375
1520530734301702010, 0.15046860158947697, 0.05672533121868778, 0.02556634646476069, -1.093326416015625, -0.29219238281250004, 10.493778076171875
1520530734306717010, 0.15339807878856412, 0.04420847409531536, 0.030360036426903318, -1.0753637695312501, -0.26584716796875, 10.533295898437501
1520530734311733010, 0.15126754991650074, 0.02849582366384785, 0.03728425526110934, -1.047821044921875, -0.29937744140625, 10.511740722656251
1520530734316748010, 0.14940333715344528, 0.010120012142301106, 0.04767058351241837, -1.0777587890625, -0.277822265625, 10.544073486328125
1520530734321765010, 0.14354438275527096, -0.00346210941710301, 0.05459480234662439, -1.153201904296875, -0.298179931640625, 10.596763916015625
1520530734326781010, 0.13475595115800945, -0.013049489341388268, 0.06018744063579079, -1.17595458984375, -0.29458740234375, 10.601553955078126
1520530734331796010, 0.12383699068868459, -0.019174759848570515, 0.06444849837991756, -1.1903247070312502, -0.314945068359375, 10.61712158203125
1520530734336812010, 0.11371697854638348, -0.02716424311880823, 0.06578007892495719, -1.178349609375, -0.2682421875, 10.61712158203125
1520530734341828010, 0.10093380531400313, -0.03195793308095086, 0.06604639503396512, -1.2166699218750001, -0.25626708984375, 10.6099365234375
1520530734346843010, 0.08708536764559109, -0.03542004249805387, 0.06444849837991756, -1.2250524902343751, -0.26105712890625, 10.625504150390626
1520530734351861010, 0.07137271721412358, -0.03888215191515688, 0.06338323394388587, -1.1687695312500002, -0.22153930664062502, 10.611134033203125
1520530734356876010, 0.05832322787273532, -0.040480048569204424, 0.06471481448892549, -1.13284423828125, -0.21674926757812502, 10.681787109375001
1520530734361892010, 0.03994741635118858, -0.03994741635118858, 0.06844324001503643, -1.1448193359375, -0.250279541015625, 10.738070068359375
1520530734366907010, 0.02210423704765768, -0.03994741635118858, 0.06950850445106813, -1.184337158203125, -0.298179931640625, 10.6961572265625
1520530734371923010, 0.00825579937924564, -0.03808320358813311, 0.06870955612404435, -1.2633728027343751, -0.29458740234375, 10.685379638671876
1520530734376939010, -0.0055926382891664005, -0.03542004249805387, 0.06711165946999681, -1.234632568359375, -0.29338989257812503, 10.71052734375
1520530734381955010, -0.01944107595757844, -0.030360036426903318, 0.06604639503396512, -1.1879296875, -0.31853759765625, 10.674602050781251
1520530734386971010, -0.03542004249805387, -0.023702133701705222, 0.06684534336098888, -1.09931396484375, -0.36643798828125, 10.673404541015625
1520530734391986010, -0.04767058351241837, -0.016245282649483356, 0.07004113666908397, -1.1567944335937501, -0.45385620117187503, 10.651849365234376
1520530734397001010, -0.06205165339884625, -0.011451592687340724, 0.07217166554114736, -1.1927197265625, -0.45744873046875, 10.591973876953126
1520530734402018010, -0.07137271721412358, -0.007723167161229791, 0.07110640110511567, -1.1520043945312501, -0.4742138671875, 10.594368896484376
1520530734407034010, -0.08282430990146432, -0.003195793308095086, 0.07190534943213944, -1.1639794921875, -0.43230102539062504, 10.600356445312501
1520530734412050010, -0.09081379317170203, -0.0007989483270237715, 0.07084008499610774, -1.18553466796875, -0.444276123046875, 10.582393798828125
1520530734417065010, -0.09773801200590805, 0.0023968449810713144, 0.07110640110511567, -1.141226806640625, -0.44068359375000005, 10.512938232421876
1520530734422082010, -0.10040117309598728, 0.007190534943213944, 0.07430219441321075, -1.157991943359375, -0.437091064453125, 10.4470751953125
1520530734427098010, -0.09933590865995559, 0.013049489341388268, 0.0782969360483296, -1.18074462890625, -0.40356079101562503, 10.409952392578125
1520530734432113010, -0.09693906367888427, 0.017843179303530896, 0.07723167161229791, -1.1448193359375, -0.38559814453125, 10.457852783203126
1520530734437129010, -0.09534116702483673, 0.018375811521546746, 0.07669903939428206, -1.1639794921875, -0.386795654296875, 10.41593994140625
1520530734442145010, -0.08708536764559109, 0.011984224905356573, 0.07723167161229791, -1.1472143554687502, -0.358055419921875, 10.368039550781251
1520530734447159010, -0.07776430383031376, 0.009853696033293183, 0.07723167161229791, -1.1639794921875, -0.310155029296875, 10.32492919921875
1520530734452176010, -0.06977482056007604, 0.00825579937924564, 0.07776430383031376, -1.239422607421875, -0.3113525390625, 10.31055908203125
1520530734457193010, -0.05459480234662439, 0.00692421883420602, 0.06950850445106813, -1.25738525390625, -0.300574951171875, 10.215955810546875
1520530734462207010, -0.041278996896228194, 0.006391586616190172, 0.0625842856168621, -1.28133544921875, -0.29219238281250004, 10.203980712890626
1520530734467223010, -0.02556634646476069, 0.004793689962142629, 0.05406217012860854, -1.217867431640625, -0.31374755859375003, 10.163265380859375
1520530734472240010, -0.01038632825130903, 0.0029294771990871623, 0.0458063707493629, -1.2022998046875, -0.34129028320312504, 10.146500244140626
1520530734477256010, 0.003994741635118857, -0.0005326322180158477, 0.04261057744126781, -1.081351318359375, -0.417930908203125, 10.159672851562501
1520530734482272010, 0.02210423704765768, 0.003195793308095086, 0.04101268078722027, -1.0681787109375, -0.549656982421875, 10.251881103515625
1520530734487287010, 0.038615835806148954, 0.01038632825130903, 0.04261057744126781, -1.131646728515625, -0.571212158203125, 10.255473632812501
1520530734492302010, 0.05246427347456099, 0.01731054708551505, 0.04181162911424404, -1.1220666503906251, -0.5652246093750001, 10.268646240234375
1520530734497318010, 0.06604639503396512, 0.023169501483689375, 0.03728425526110934, -1.095721435546875, -0.5508544921875, 10.28181884765625
1520530734502336010, 0.0759000910672583, 0.03062635253591124, 0.04181162911424404, -1.04183349609375, -0.6035449218750001, 10.309361572265626
1520530734507351010, 0.08708536764559109, 0.03728425526110934, 0.048203215730434214, -1.044228515625, -0.6251000976562501, 10.368039550781251
1520530734512366010, 0.0937432703707892, 0.04261057744126781, 0.05379585401960062, -1.1256591796875, -0.6179150390625, 10.3512744140625
1520530734517382010, 0.10359696640408238, 0.050067428493489684, 0.06125270507182248, -1.120869140625, -0.592767333984375, 10.339299316406251
1520530734522399010, 0.10918960469324877, 0.05246427347456099, 0.07217166554114736, -1.07296875, -0.57240966796875, 10.368039550781251
1520530734527414010, 0.11424961076439932, 0.04953479627547384, 0.08362325822848808, -1.1136840820312501, -0.513731689453125, 10.419532470703125
1520530734532429010, 0.11691277185447857, 0.046605319076386674, 0.09454221869781296, -1.1472143554687502, -0.4358935546875, 10.419532470703125
1520530734537444010, 0.11984224905356573, 0.03755057137011726, 0.10333065029507445, -1.1543994140625, -0.4167333984375, 10.402767333984375
1520530734542461010, 0.12037488127158158, 0.025832662573768612, 0.11078750134729631, -1.153201904296875, -0.417930908203125, 10.37761962890625
1520530734547477010, 0.12357067457967666, 0.018375811521546746, 0.1150485590914231, -1.13284423828125, -0.42272094726562504, 10.426717529296875
1520530734552494010, 0.12383699068868459, 0.011984224905356573, 0.1206411973805895, -1.189127197265625, -0.42272094726562504, 10.44228515625
1520530734557509010, 0.11824435239951818, 0.007456851052221868, 0.12250541014364497, -1.2633728027343751, -0.41074584960937505, 10.4566552734375
1520530734562524010, 0.1150485590914231, 0.006125270507182248, 0.12490225512471628, -1.32444580078125, -0.37362304687500003, 10.491383056640625
1520530734567540010, 0.11105381745630424, 0.002663161090079238, 0.12197277792562912, -1.3268408203125002, -0.39517822265625, 10.496173095703126
1520530734572557010, 0.10626012749416161, 0.003994741635118857, 0.12144014570761327, -1.299298095703125, -0.39996826171875, 10.48300048828125
1520530734577573010, 0.09853696033293181, 0.004261057744126781, 0.12383699068868459, -1.2549902343750001, -0.38559814453125, 10.517728271484376
1520530734582588010, 0.0905474770626941, -0.0021305288720633907, 0.1251685712337242, -1.253792724609375, -0.38080810546875005, 10.55964111328125
1520530734587604010, 0.08096009713840885, -0.004261057744126781, 0.12863068065082722, -1.282532958984375, -0.3688330078125, 10.517728271484376
1520530734592620010, 0.0727042977591632, -0.007190534943213944, 0.13235910617693813, -1.275347900390625, -0.31853759765625, 10.49737060546875
1520530734597635010, 0.06311691783487795, -0.011984224905356573, 0.13582121559404114, -1.1867321777343751, -0.271834716796875, 10.565628662109376
1520530734602652010, 0.05273058958356892, -0.019174759848570515, 0.14114753777419964, -1.18553466796875, -0.27303222656250004, 10.584788818359376
1520530734607668010, 0.04527373853134705, -0.02929477199087162, 0.14514227940931848, -1.215472412109375, -0.239501953125, 10.52132080078125
1520530734612682010, 0.03648530693408557, -0.043143209659283664, 0.1475391243903898, -1.249002685546875, -0.21794677734375, 10.503358154296876
1520530734617700010, 0.0290284558818637, -0.05459480234662439, 0.14594122773634227, -1.22625, -0.183218994140625, 10.4614453125
1520530734622715010, 0.02423476591972107, -0.06498113059793342, 0.14567491162733434, -1.304088134765625, -0.209564208984375, 10.38719970703125
1520530734627730010, 0.021038972611625982, -0.07217166554114736, 0.13768542835709663, -1.330433349609375, -0.229921875, 10.4087548828125
1520530734632747010, 0.016777914867499202, -0.07456851052221868, 0.12969594508685892, -1.41066650390625, -0.239501953125, 10.356064453125
1520530734637763010, 0.013315805450396193, -0.07243798165015529, 0.12144014570761327, -1.428629150390625, -0.25267456054687504, 10.350076904296875
1520530734642778010, 0.013049489341388268, -0.06524744670694134, 0.10918960469324877, -1.36037109375, -0.32572265625, 10.395582275390625
1520530734647793010, 0.011984224905356573, -0.05459480234662439, 0.09880327644193974, -1.30049560546875, -0.40954833984375, 10.436297607421876
1520530734652809010, 0.011451592687340724, -0.041278996896228194, 0.09187905760773372, -1.24301513671875, -0.46104125976562504, 10.471025390625
1520530734657825010, 0.007723167161229791, -0.02556634646476069, 0.0849548387735277, -1.229842529296875, -0.530496826171875, 10.488988037109376
1520530734662841010, 0.006391586616190172, -0.011451592687340724, 0.08202536157444054, -1.2597802734375, -0.528101806640625, 10.490185546875
1520530734667857010, 0.0055926382891664005, 0.001331580545039619, 0.07483482663122659, -1.32923583984375, -0.488583984375, 10.534493408203126
1520530734672874010, 0.004261057744126781, 0.011451592687340724, 0.06604639503396512, -1.350791015625, -0.44307861328125003, 10.479407958984375
1520530734677889010, 0.002663161090079238, 0.017044230976507126, 0.05912217619975909, -1.3148657226562501, -0.3784130859375, 10.432705078125
1520530734682906010, -0.00026631610900792384, 0.023702133701705222, 0.051665325147537224, -1.239422607421875, -0.354462890625, 10.376422119140626
1520530734687920010, -0.0005326322180158477, 0.03142530086293501, 0.04181162911424404, -1.1831396484375, -0.348475341796875, 10.362052001953126
1520530734692936010, 0.001597896654047543, 0.0346210941710301, 0.03249056529896671, -1.2286450195312502, -0.3305126953125, 10.316546630859376
1520530734697952010, -0.0007989483270237715, 0.030360036426903318, 0.02423476591972107, -1.2370275878906252, -0.30416748046875003, 10.308164062500001
1520530734702968010, 0.001331580545039619, 0.02290318537468145, 0.014381069886427887, -1.1927197265625, -0.27542724609375, 10.31055908203125
1520530734707984010, 0.007456851052221868, 0.021038972611625982, 0.007989483270237714, -1.12805419921875, -0.3065625, 10.3225341796875
1520530734712999010, 0.008788431597261486, 0.02476739813773692, 0.003994741635118857, -1.112486572265625, -0.326920166015625, 10.364447021484375
1520530734718016010, 0.01038632825130903, 0.0290284558818637, -0.0005326322180158477, -1.1256591796875, -0.3592529296875, 10.424322509765625
1520530734723032010, 0.011451592687340724, 0.03888215191515688, -0.003994741635118857, -1.1053015136718751, -0.348475341796875, 10.465037841796876
1520530734728048010, 0.016777914867499202, 0.04793689962142629, -0.010120012142301106, -1.093326416015625, -0.3305126953125, 10.560838623046875
1520530734733063010, 0.01944107595757844, 0.05965480841777494, -0.015180018213451659, -1.033450927734375, -0.32572265625, 10.6290966796875
1520530734738080010, 0.022636869265673525, 0.06524744670694134, -0.017843179303530896, -1.0789562988281252, -0.3113525390625, 10.570418701171876
1520530734743095010, 0.026098978682776535, 0.07510114274023452, -0.02423476591972107, -1.146016845703125, -0.3065625, 10.582393798828125
1520530734748109010, 0.03222424918995878, 0.08415589044650393, -0.031158984753927088, -1.13763427734375, -0.30177246093750004, 10.553653564453125
1520530734753127010, 0.039681100242180654, 0.0916127414987258, -0.03488741028003802, -1.088536376953125, -0.317340087890625, 10.524913330078126
1520530734758143010, 0.0458063707493629, 0.10253170196805068, -0.03648530693408557, -1.08494384765625, -0.348475341796875, 10.4853955078125
1520530734763158010, 0.05060006071150553, 0.11105381745630424, -0.03595267471606972, -1.134041748046875, -0.32811767578125, 10.493778076171875
1520530734768175010, 0.05832322787273532, 0.11211908189233594, -0.03408846195301425, -1.1520043945312501, -0.35206787109375004, 10.451865234375001
1520530734773191010, 0.06977482056007604, 0.11345066243737556, -0.033555829734998405, -1.16158447265625, -0.41314086914062503, 10.457852783203126
1520530734778206010, 0.0782969360483296, 0.11558119130943895, -0.030892668644919165, -1.2034973144531251, -0.41912841796875, 10.420729980468751
1520530734783222010, 0.08575378710055148, 0.11638013963646272, -0.02716424311880823, -1.235830078125, -0.44068359375000005, 10.386002197265626
1520530734788237010, 0.09480853480682089, 0.11664645574547064, -0.023169501483689375, -1.20948486328125, -0.456251220703125, 10.394384765625
1520530734793254010, 0.10333065029507445, 0.11025486912928047, -0.018908443739562592, -1.1639794921875, -0.44786865234375, 10.413544921875001
1520530734798270010, 0.11371697854638348, 0.10333065029507445, -0.01464738599543581, -1.141226806640625, -0.44188110351562504, 10.40156982421875
1520530734803285010, 0.12223909403463704, 0.09667274756987636, -0.007190534943213944, -1.1436218261718751, -0.439486083984375, 10.431507568359375
1520530734808300010, 0.13262542228594607, 0.09241168982574957, -0.001331580545039619, -1.1352392578125001, -0.4454736328125, 10.500963134765625
1520530734813316010, 0.14008227333816795, 0.08841694819063071, 0.003195793308095086, -1.12805419921875, -0.415535888671875, 10.469827880859375
1520530734818332010, 0.14674017606336603, 0.08362325822848808, 0.008788431597261486, -1.16637451171875, -0.37601806640625, 10.445877685546876
1520530734823348010, 0.1510012338074928, 0.07456851052221868, 0.011451592687340724, -1.179547119140625, -0.3688330078125, 10.43989013671875
1520530734828364010, 0.16245282649483353, 0.07243798165015529, 0.010652644360316953, -1.1819421386718751, -0.354462890625, 10.407557373046876
1520530734833381010, 0.17390441918217428, 0.07030745277809189, 0.012783173232380344, -1.184337158203125, -0.34368530273437503, 10.376422119140626
1520530734838396010, 0.17683389638126143, 0.06524744670694134, 0.01651159875849128, -1.22625, -0.367635498046875, 10.3704345703125
1520530734843412010, 0.18349179910645952, 0.05512743456464023, 0.019174759848570515, -1.2549902343750001, -0.38080810546875005, 10.414742431640626
1520530734848427010, 0.19254654681272892, 0.0468716351853946, 0.01944107595757844, -1.1879296875, -0.355660400390625, 10.40156982421875
1520530734853443010, 0.1976065528838795, 0.037816887479125184, 0.01864212763055467, -1.1567944335937501, -0.365240478515625, 10.376422119140626
1520530734858458010, 0.19973708175594287, 0.03142530086293501, 0.018109495412538822, -1.1927197265625, -0.3400927734375, 10.376422119140626
1520530734863474010, 0.20586235226312513, 0.0290284558818637, 0.016777914867499202, -1.235830078125, -0.34727783203125, 10.421927490234376
1520530734868490010, 0.2122539388793153, 0.023968449810713145, 0.011451592687340724, -1.215472412109375, -0.32811767578125, 10.435100097656251
1520530734873507010, 0.2090581455712202, 0.01464738599543581, 0.007190534943213944, -1.197509765625, -0.30177246093750004, 10.499765625
1520530734878522010, 0.21092235833427567, 0.012516857123372421, 0.004527373853134706, -1.2502001953125002, -0.281414794921875, 10.4853955078125
1520530734883538010, 0.21252025498832322, 0.010918960469324878, 0.0007989483270237715, -1.234632568359375, -0.28500732421875, 10.503358154296876
1520530734888554010, 0.20932446168022814, 0.008788431597261486, -0.0021305288720633907, -1.272952880859375, -0.23710693359375, 10.534493408203126
1520530734893571010, 0.20506340393610137, 0.0010652644360316954, -0.007723167161229791, -1.2765454101562501, -0.23590942382812502, 10.517728271484376
1520530734898585010, 0.20399813950006965, -0.003994741635118857, -0.010918960469324878, -1.256187744140625, -0.247884521484375, 10.529703369140625
1520530734903601010, 0.20160129451899836, -0.004793689962142629, -0.01038632825130903, -1.251397705078125, -0.24189697265625001, 10.551258544921875
1520530734908618010, 0.1944107595757844, -0.00692421883420602, -0.010652644360316953, -1.26217529296875, -0.30416748046875003, 10.5907763671875
1520530734913632010, 0.18828548906860215, -0.009054747706269411, -0.01038632825130903, -1.282532958984375, -0.316142578125, 10.56443115234375
1520530734918650010, 0.1832254829974516, -0.007989483270237714, -0.012783173232380344, -1.2789404296875, -0.350870361328125, 10.53569091796875
1520530734923665010, 0.17496968361820597, -0.012783173232380344, -0.01384843766841204, -1.2633728027343751, -0.34248779296875004, 10.578801269531251
1520530734928681010, 0.16591493591193654, -0.01384843766841204, -0.015446334322459582, -1.2585827636718752, -0.319735107421875, 10.554851074218751
1520530734933697010, 0.1584580848597147, -0.01597896654047543, -0.01731054708551505, -1.24301513671875, -0.30416748046875003, 10.540480957031251
1520530734938714010, 0.15020228548046904, -0.01597896654047543, -0.017044230976507126, -1.253792724609375, -0.3113525390625, 10.577603759765626
1520530734943729010, 0.1408812216651917, -0.016777914867499202, -0.015712650431467506, -1.227447509765625, -0.32213012695312504, 10.541678466796876
1520530734948745010, 0.13022857730487475, -0.021038972611625982, -0.01597896654047543, -1.2286450195312502, -0.33410522460937503, 10.571616210937501
1520530734953761010, 0.11984224905356573, -0.02689792700980031, -0.013315805450396193, -1.184337158203125, -0.3305126953125, 10.540480957031251
1520530734958776010, 0.10972223691126462, -0.03328951362599048, -0.008522115488253563, -1.2286450195312502, -0.300574951171875, 10.529703369140625
1520530734963791010, 0.10253170196805068, -0.039681100242180654, -0.001864212763055467, -1.2466076660156251, -0.295784912109375, 10.50695068359375
1520530734968808010, 0.09587379924285258, -0.0468716351853946, 0.004527373853134706, -1.232237548828125, -0.271834716796875, 10.4614453125
1520530734973823010, 0.08548747099154355, -0.05379585401960062, 0.009321063815277334, -1.20948486328125, -0.197589111328125, 10.5141357421875
1520530734978839010, 0.0782969360483296, -0.05832322787273532, 0.011984224905356573, -1.1567944335937501, -0.18441650390625, 10.55964111328125
1520530734983856010, 0.06950850445106813, -0.06178533728983833, 0.01651159875849128, -1.13763427734375, -0.20118164062500002, 10.585986328125001
1520530734988871010, 0.062317969507854176, -0.06338323394388587, 0.021305288720633905, -1.2286450195312502, -0.20597167968750002, 10.639874267578126
1520530734993888010, 0.05566006678265608, -0.06631271114297303, 0.021837920938649755, -1.3076806640625, -0.16046630859375, 10.596763916015625
1520530734998903010, 0.04846953183944214, -0.0681769239060285, 0.01997370817559429, -1.292113037109375, -0.10298583984375001, 10.618319091796875
1520530735003919010, 0.03834951969714103, -0.07004113666908397, 0.017843179303530896, -1.189127197265625, -0.1149609375, 10.591973876953126
1520530735008935010, 0.03249056529896671, -0.06897587223305228, 0.01597896654047543, -1.18074462890625, -0.09101074218750001, 10.618319091796875
1520530735013949010, 0.022370553156665602, -0.0681769239060285, 0.01384843766841204, -1.234632568359375, -0.09101074218750001, 10.638676757812501
1520530735018966010, 0.015180018213451659, -0.0692421883420602, 0.009853696033293183, -1.2286450195312502, -0.092208251953125, 10.674602050781251
1520530735023982010, 0.00692421883420602, -0.07137271721412358, 0.008788431597261486, -1.217867431640625, -0.09101074218750001, 10.711724853515626
1520530735028999010, -0.005326322180158476, -0.07137271721412358, 0.005858954398174325, -1.191522216796875, -0.06825805664062501, 10.630294189453126
1520530735034014010, -0.016245282649483356, -0.0727042977591632, 0.00692421883420602, -1.1987072753906252, -0.086220703125, 10.632689208984376
1520530735039029010, -0.02716424311880823, -0.07456851052221868, 0.006125270507182248, -1.196312255859375, -0.046702880859375004, 10.624306640625
1520530735044045010, -0.03648530693408557, -0.07749798772130584, 0.00825579937924564, -1.239422607421875, -0.01916015625, 10.560838623046875
1520530735049062010, -0.04713795129440252, -0.07856325215733753, 0.010120012142301106, -1.2334350585937501, -0.025147705078125002, 10.51653076171875
1520530735054077010, -0.0569916473276957, -0.07856325215733753, 0.008522115488253563, -1.197509765625, -0.046702880859375004, 10.532098388671876
1520530735059093010, -0.06711165946999681, -0.07696535550328999, 0.010120012142301106, -1.208287353515625, -0.07304809570312501, 10.558443603515625
1520530735064108010, -0.07803061993932169, -0.07563377495825037, 0.008522115488253563, -1.244212646484375, -0.1149609375, 10.517728271484376
1520530735069124010, -0.08202536157444054, -0.06897587223305228, 0.007989483270237714, -1.2585827636718752, -0.1580712890625, 10.553653564453125
1520530735074141010, -0.08868326429963864, -0.0636495500528938, 0.008788431597261486, -1.265767822265625, -0.168848876953125, 10.511740722656251
1520530735079156010, -0.09427590258880504, -0.05326322180158477, 0.005858954398174325, -1.304088134765625, -0.18681152343750002, 10.487790527343751
1520530735084173010, -0.09693906367888427, -0.04500742242233913, 0.004793689962142629, -1.3172607421875, -0.1772314453125, 10.477012939453125
1520530735089187010, -0.10013485698697937, -0.036218990825077645, 0.006391586616190172, -1.282532958984375, -0.168848876953125, 10.481802978515626
1520530735094203010, -0.10306433418606653, -0.030892668644919165, 0.009587379924285258, -1.289718017578125, -0.18681152343750002, 10.53090087890625
1520530735099219010, -0.10546117916713783, -0.02822950755483993, 0.010120012142301106, -1.215472412109375, -0.188009033203125, 10.510543212890626
1520530735104235010, -0.10626012749416161, -0.027963191445832, 0.01597896654047543, -1.191522216796875, -0.16166381835937502, 10.5237158203125
1520530735109252010, -0.11132013356531216, -0.0290284558818637, 0.022636869265673525, -1.174757080078125, -0.14609619140625002, 10.500963134765625
1520530735114266010, -0.11478224298241517, -0.02849582366384785, 0.028762139772855775, -1.201102294921875, -0.159268798828125, 10.481802978515626
1520530735119283010, -0.11904330072654196, -0.028762139772855775, 0.033555829734998405, -1.18553466796875, -0.17483642578125, 10.548863525390626
1520530735124298010, -0.1241033067976925, -0.02556634646476069, 0.03888215191515688, -1.235830078125, -0.19040405273437502, 10.570418701171876
1520530735129315010, -0.13235910617693813, -0.018908443739562592, 0.041278996896228194, -1.251397705078125, -0.20118164062500002, 10.553653564453125
1520530735134331010, -0.1419464861012234, -0.006657902725198096, 0.041278996896228194, -1.24301513671875, -0.24908203125, 10.593171386718751
1520530735139347010, -0.14887070493542942, 0.002663161090079238, 0.04181162911424404, -1.2466076660156251, -0.28261230468750004, 10.6482568359375
1520530735144362010, -0.15925703318673845, 0.01038632825130903, 0.043942157986307434, -1.268162841796875, -0.27303222656250004, 10.70334228515625
1520530735149378010, -0.16911072922003165, 0.01997370817559429, 0.04607268685837083, -1.275347900390625, -0.25387207031250003, 10.698552246093751
1520530735154394010, -0.1776328447082852, 0.027430559227816155, 0.04367584187729951, -1.251397705078125, -0.23590942382812502, 10.675799560546876
1520530735159410010, -0.18615496019653877, 0.03328951362599048, 0.04154531300523612, -1.213077392578125, -0.255069580078125, 10.66981201171875
1520530735164425010, -0.19627497233883986, 0.03834951969714103, 0.04181162911424404, -1.2334350585937501, -0.21315673828125, 10.630294189453126
1520530735169441010, -0.20319919117304588, 0.03808320358813311, 0.04154531300523612, -1.208287353515625, -0.202379150390625, 10.585986328125001
1520530735174457010, -0.20719393280816475, 0.037816887479125184, 0.042077945223251964, -1.2118798828125001, -0.19639160156250002, 10.5907763671875
1520530735179473010, -0.21385183553336284, 0.036218990825077645, 0.044741106313331204, -1.2406201171875, -0.20357666015625, 10.553653564453125
1520530735184489010, -0.2189118416045134, 0.03542004249805387, 0.048203215730434214, -1.217867431640625, -0.26345214843750003, 10.539283447265625
1520530735189505010, -0.22290658323963225, 0.03728425526110934, 0.05033374460249761, -1.201102294921875, -0.28261230468750004, 10.500963134765625
1520530735194520010, -0.2255697443297115, 0.0346210941710301, 0.0513990090385293, -1.184337158203125, -0.31374755859375003, 10.526110839843751
1520530735199536010, -0.22770027320177488, 0.03328951362599048, 0.05725796343670363, -1.193917236328125, -0.316142578125, 10.481802978515626
1520530735204553010, -0.23062975040086203, 0.026631610900792385, 0.05992112452678287, -1.191522216796875, -0.335302734375, 10.481802978515626
1520530735209569010, -0.23382554370895714, 0.02210423704765768, 0.06018744063579079, -1.210682373046875, -0.3496728515625, 10.453062744140626
1520530735214583010, -0.23542344036300467, 0.018109495412538822, 0.061519021180830406, -1.2250524902343751, -0.354462890625, 10.466235351562501
1520530735219600010, -0.23702133701705222, 0.014913702104443736, 0.05858954398174324, -1.25738525390625, -0.3688330078125, 10.479407958984375
1520530735224615010, -0.2391518658891156, 0.013315805450396193, 0.05672533121868778, -1.232237548828125, -0.348475341796875, 10.488988037109376
1520530735229631010, -0.23835291756209184, 0.01651159875849128, 0.053529537910592694, -1.29570556640625, -0.36284545898437504, 10.536888427734375
1520530735234647010, -0.23835291756209184, 0.021837920938649755, 0.047404267403410444, -1.347198486328125, -0.39278320312500004, 10.503358154296876
1520530735239663010, -0.23515712425399674, 0.032756881407974635, 0.040480048569204424, -1.32923583984375, -0.429906005859375, 10.466235351562501
1520530735244678010, -0.23409185981796504, 0.044741106313331204, 0.030892668644919165, -1.289718017578125, -0.45385620117187503, 10.45426025390625
1520530735249694010, -0.22530342822070357, 0.05752427954571155, 0.02476739813773692, -1.3172607421875, -0.45265869140625004, 10.420729980468751
1520530735254711010, -0.21624868051443416, 0.0636495500528938, 0.017044230976507126, -1.2717553710937501, -0.45385620117187503, 10.383607177734376
1520530735259727010, -0.2090581455712202, 0.06791060779702057, 0.010120012142301106, -1.21906494140625, -0.5269042968750001, 10.366842041015625
1520530735264742010, -0.1989381334289191, 0.06657902725198096, 0.007989483270237714, -1.149609375, -0.564027099609375, 10.308164062500001
1520530735269758010, -0.18269285077943576, 0.06285060172587002, 0.00825579937924564, -1.14242431640625, -0.56282958984375, 10.268646240234375
1520530735274774010, -0.16511598758491278, 0.053529537910592694, 0.008788431597261486, -1.1472143554687502, -0.583187255859375, 10.272238769531251
1520530735279790010, -0.14940333715344528, 0.04234426133225989, 0.009587379924285258, -1.148411865234375, -0.57240966796875, 10.255473632812501
1520530735284806010, -0.13315805450396193, 0.035153726389045944, 0.007723167161229791, -1.17595458984375, -0.613125, 10.220745849609376
1520530735289821010, -0.11238539800134385, 0.030360036426903318, 0.006125270507182248, -1.1735595703125001, -0.6562353515625, 10.18601806640625
1520530735294836010, -0.09108010928070995, 0.026098978682776535, 0.004793689962142629, -1.1987072753906252, -0.6765930175781251, 10.22912841796875
1520530735299852010, -0.06791060779702057, 0.023968449810713145, 0.0010652644360316954, -1.2070898437500002, -0.64905029296875, 10.211165771484376
1520530735304869010, -0.0468716351853946, 0.025832662573768612, -0.006125270507182248, -1.2022998046875, -0.645457763671875, 10.201585693359375
1520530735309885010, -0.021837920938649755, 0.022370553156665602, -0.012250541014364496, -1.232237548828125, -0.669407958984375, 10.233918457031251
1520530735314900010, -0.00026631610900792384, 0.024501082028728992, -0.018908443739562592, -1.197509765625, -0.62989013671875, 10.195598144531251
1520530735319916010, 0.021571604829641832, 0.026631610900792385, -0.02556634646476069, -1.1735595703125001, -0.6358776855468751, 10.2315234375
1520530735324932010, 0.04287689355027574, 0.024501082028728992, -0.02982740420888747, -1.1448193359375, -0.59156982421875, 10.251881103515625
1520530735329949010, 0.06444849837991756, 0.017843179303530896, -0.034354778062022175, -1.134041748046875, -0.540076904296875, 10.261461181640625
1520530735334964010, 0.08388957433749601, 0.010652644360316953, -0.03675162304309349, -1.0753637695312501, -0.53887939453125, 10.23870849609375
1520530735339980010, 0.10412959862209822, -0.001331580545039619, -0.03648530693408557, -1.031055908203125, -0.55324951171875, 10.22433837890625
1520530735344994010, 0.12170646181662119, -0.013049489341388268, -0.03994741635118858, -1.07296875, -0.568817138671875, 10.255473632812501
1520530735350011010, 0.136353847812057, -0.025300030355752765, -0.0391484680241648, -1.12326416015625, -0.59156982421875, 10.30576904296875
1520530735355027010, 0.1520664982435245, -0.0346210941710301, -0.03941478413317273, -1.174757080078125, -0.6143225097656251, 10.283016357421875
1520530735360044010, 0.16351809093086522, -0.04074636467821235, -0.0402137324601965, -1.189127197265625, -0.6358776855468751, 10.314151611328125
1520530735365058010, 0.17710021249026936, -0.04447479020432328, -0.04074636467821235, -1.178349609375, -0.62989013671875, 10.309361572265626
1520530735370077010, 0.1866875924145546, -0.04287689355027574, -0.041278996896228194, -1.1520043945312501, -0.611927490234375, 10.383607177734376
1520530735375092010, 0.19174759848570516, -0.0402137324601965, -0.04154531300523612, -1.197509765625, -0.6382727050781251, 10.375224609375001
1520530735380107010, 0.1965412884478478, -0.035153726389045944, -0.041278996896228194, -1.2597802734375, -0.659827880859375, 10.407557373046876
1520530735385123010, 0.19947076564693494, -0.029561088099879545, -0.04500742242233913, -1.274150390625, -0.6442602539062501, 10.453062744140626
1520530735390138010, 0.19813918510189535, -0.021571604829641832, -0.04926848016646591, -1.25259521484375, -0.6274951171875001, 10.46863037109375
1520530735395153010, 0.19574234012082403, -0.015446334322459582, -0.053529537910592694, -1.2549902343750001, -0.619112548828125, 10.518925781250001
1520530735400170010, 0.18935075350463385, -0.008522115488253563, -0.05566006678265608, -1.2310400390625, -0.602347412109375, 10.522518310546875
1520530735405185010, 0.181893902452412, -0.002663161090079238, -0.058855860090751166, -1.2250524902343751, -0.5700146484375, 10.55006103515625
1520530735410202010, 0.1675128325659841, 0.00026631610900792384, -0.06045375674479871, -1.2466076660156251, -0.5544470214843751, 10.603948974609375
1520530735415217010, 0.15259913046154036, 0.001864212763055467, -0.06125270507182248, -1.26217529296875, -0.508941650390625, 10.6099365234375
1520530735420233010, 0.13715279613908077, 0.0007989483270237715, -0.06018744063579079, -1.244212646484375, -0.49217651367187504, 10.624306640625
1520530735425249010, 0.1206411973805895, 0.001331580545039619, -0.05539375067364816, -1.2034973144531251, -0.48139892578125004, 10.65544189453125
1520530735430265010, 0.10040117309598728, 0.001864212763055467, -0.05113269292952138, -1.1256591796875, -0.43828857421875, 10.630294189453126
1520530735435281010, 0.07962851659336923, 0.00026631610900792384, -0.045540054640354974, -1.1053015136718751, -0.427510986328125, 10.601553955078126
1520530735440296010, 0.061519021180830406, -0.0055926382891664005, -0.037017939152101415, -1.134041748046875, -0.43349853515625003, 10.65544189453125
1520530735445312010, 0.04234426133225989, -0.011451592687340724, -0.031691616971942935, -1.1603869628906252, -0.398770751953125, 10.6195166015625
1520530735450329010, 0.025033714246744842, -0.018109495412538822, -0.02636529479178446, -1.1567944335937501, -0.40356079101562503, 10.614726562500001
1520530735455344010, 0.002663161090079238, -0.02636529479178446, -0.02077265650261806, -1.1819421386718751, -0.42391845703125003, 10.62670166015625
1520530735460360010, -0.014381069886427887, -0.03142530086293501, -0.01597896654047543, -1.196312255859375, -0.396375732421875, 10.64107177734375
1520530735465375010, -0.030360036426903318, -0.03195793308095086, -0.012783173232380344, -1.197509765625, -0.40236328125000004, 10.61712158203125
1520530735470392010, -0.048203215730434214, -0.03568635860706179, -0.008788431597261486, -1.2214599609375, -0.42272094726562504, 10.601553955078126
1520530735475408010, -0.06391586616190172, -0.03595267471606972, -0.0023968449810713144, -1.2202624511718752, -0.46104125976562504, 10.577603759765626
1520530735480423010, -0.07723167161229791, -0.03302319751698256, 0.0029294771990871623, -1.1735595703125001, -0.456251220703125, 10.589578857421875
1520530735485439010, -0.09321063815277335, -0.020506340393610135, 0.004527373853134706, -1.205892333984375, -0.43230102539062504, 10.627899169921875
1520530735490456010, -0.10679275971217746, -0.01171790879634865, 0.007723167161229791, -1.1304492187500002, -0.38559814453125, 10.621911621093751
1520530735495470010, -0.11904330072654196, -0.0055926382891664005, 0.011185276578332801, -1.270557861328125, -0.367635498046875, 10.613529052734375
1520530735500486010, -0.13022857730487475, -0.009587379924285258, 0.014381069886427887, -1.292113037109375, -0.379610595703125, 10.631491699218751
1520530735505502010, -0.14274543442824716, -0.011984224905356573, 0.01651159875849128, -1.2693603515625, -0.427510986328125, 10.605146484375
1520530735510519010, -0.15153386602550867, -0.01597896654047543, 0.01731054708551505, -1.21906494140625, -0.41912841796875, 10.544073486328125
1520530735515534010, -0.15606123987864337, -0.01944107595757844, 0.01731054708551505, -1.1927197265625, -0.39038818359375, 10.5141357421875
1520530735520550010, -0.1619201942768177, -0.020240024284602212, 0.014913702104443736, -1.184337158203125, -0.4167333984375, 10.508148193359375
1520530735525565010, -0.1685780970020158, -0.015446334322459582, 0.017576863194522972, -1.114881591796875, -0.444276123046875, 10.479407958984375
1520530735530582010, -0.1709749419830871, -0.00692421883420602, 0.016245282649483356, -1.150806884765625, -0.449066162109375, 10.43989013671875
1520530735535598010, -0.17230652252812673, 0.003994741635118857, 0.014381069886427887, -1.1520043945312501, -0.4981640625, 10.45426025390625
1520530735540613010, -0.17283915474614256, 0.016245282649483356, 0.014114753777419964, -1.14242431640625, -0.5269042968750001, 10.462642822265625
1520530735545628010, -0.17363810307316635, 0.02849582366384785, 0.013582121559404116, -1.1256591796875, -0.602347412109375, 10.4470751953125
1520530735550644010, -0.1720402064191188, 0.03728425526110934, 0.015712650431467506, -1.1543994140625, -0.631087646484375, 10.510543212890626
1520530735555661010, -0.17017599365606334, 0.046605319076386674, 0.017044230976507126, -1.157991943359375, -0.641865234375, 10.547666015625001
1520530735560677010, -0.16937704532903955, 0.048203215730434214, 0.018375811521546746, -1.086141357421875, -0.6358776855468751, 10.577603759765626
