# timestamp, wx, wy, wz, ax, ay, az
1.691117384993539072e+18,1.096224116930572499e-02,2.436053593179049806e-03,2.923264311814859767e-02,3.065717760000000180e-01,-1.532858880000000090e-01,9.503725056000000393e+00
1.691117385003539200e+18,-1.339829476248477480e-02,1.096224116930572499e-02,3.166869671132764574e-02,1.532858880000000090e-01,-1.532858880000000090e-01,9.657010944000001373e+00
1.691117385013539072e+18,0.000000000000000000e+00,7.308160779537149418e-03,3.045066991473812518e-02,0.000000000000000000e+00,-1.532858880000000090e-01,9.657010944000001373e+00
1.691117385023538944e+18,-1.218026796589524903e-03,4.872107186358099612e-03,3.288672350791717325e-02,3.065717760000000180e-01,-1.532858880000000090e-01,9.657010944000001373e+00
1.691117385033539072e+18,4.872107186358099612e-03,1.218026796589524903e-02,3.288672350791717325e-02,1.532858880000000090e-01,0.000000000000000000e+00,9.657010944000001373e+00
1.691117385043538944e+18,4.872107186358099612e-03,3.654080389768574709e-03,3.775883069427527633e-02,3.065717760000000180e-01,-1.532858880000000090e-01,9.657010944000001373e+00
1.691117385053539072e+18,7.308160779537149418e-03,1.218026796589524903e-02,3.166869671132764574e-02,1.532858880000000090e-01,-1.532858880000000090e-01,9.657010944000001373e+00
1.691117385063538944e+18,-1.218026796589524903e-03,1.096224116930572499e-02,3.410475030450670075e-02,1.532858880000000090e-01,-1.532858880000000090e-01,9.657010944000001373e+00
1.691117385073539072e+18,-4.872107186358099612e-03,7.308160779537149418e-03,2.070645554202192595e-02,1.532858880000000090e-01,-1.532858880000000090e-01,9.503725056000000393e+00
1.691117385083538944e+18,-6.090133982947624515e-03,7.308160779537149418e-03,4.141291108404385191e-02,3.065717760000000180e-01,-1.532858880000000090e-01,9.657010944000001373e+00
1.691117385093539072e+18,-7.308160779537149418e-03,7.308160779537149418e-03,3.166869671132764574e-02,6.131435520000000361e-01,-3.065717760000000180e-01,9.503725056000000393e+00
1.691117385103538944e+18,8.526187576126675188e-03,1.827040194884287441e-02,2.923264311814859767e-02,3.065717760000000180e-01,-1.532858880000000090e-01,9.657010944000001373e+00
1.691117385113539072e+18,-4.872107186358099612e-03,1.461632155907429884e-02,3.166869671132764574e-02,1.532858880000000090e-01,-1.532858880000000090e-01,9.657010944000001373e+00
1.691117385123539200e+18,6.090133982947624515e-03,9.744214372716199224e-03,3.166869671132764574e-02,3.065717760000000180e-01,-1.532858880000000090e-01,9.503725056000000393e+00
1.691117385133539072e+18,-1.218026796589524903e-03,2.436053593179049806e-03,3.166869671132764574e-02,0.000000000000000000e+00,-3.065717760000000180e-01,9.657010944000001373e+00
1.691117385143539200e+18,8.526187576126675188e-03,1.461632155907429884e-02,3.166869671132764574e-02,3.065717760000000180e-01,-1.532858880000000090e-01,9.503725056000000393e+00
1.691117385153539072e+18,-4.872107186358099612e-03,6.090133982947624515e-03,3.532277710109622132e-02,4.598576639999999993e-01,-1.532858880000000090e-01,9.503725056000000393e+00
1.691117385163539200e+18,8.526187576126675188e-03,6.090133982947624515e-03,1.827040194884287441e-02,1.532858880000000090e-01,0.000000000000000000e+00,9.350439168000001189e+00
1.691117385173539072e+18,1.461632155907429884e-02,8.526187576126675188e-03,4.263093788063337247e-02,0.000000000000000000e+00,-1.532858880000000090e-01,9.657010944000001373e+00
1.691117385183539200e+18,8.526187576126675188e-03,9.744214372716199224e-03,2.801461632155907364e-02,1.532858880000000090e-01,-4.598576639999999993e-01,9.503725056000000393e+00
1.691117385193539072e+18,2.436053593179049806e-03,1.705237515225335038e-02,2.557856272838002556e-02,3.065717760000000180e-01,0.000000000000000000e+00,9.503725056000000393e+00
1.691117385203539200e+18,-4.872107186358099612e-03,1.096224116930572499e-02,2.923264311814859767e-02,9.197153279999999986e-01,-3.065717760000000180e-01,9.350439168000001189e+00
1.691117385213539072e+18,4.872107186358099612e-03,3.654080389768574709e-03,2.679658952496954960e-02,3.065717760000000180e-01,-1.532858880000000090e-01,9.503725056000000393e+00
1.691117385223539200e+18,0.000000000000000000e+00,1.096224116930572499e-02,3.288672350791717325e-02,3.065717760000000180e-01,-3.065717760000000180e-01,9.503725056000000393e+00
1.691117385233539072e+18,3.654080389768574709e-03,1.948842874543239845e-02,2.801461632155907364e-02,3.065717760000000180e-01,-1.532858880000000090e-01,9.657010944000001373e+00
1.691117385243539200e+18,4.872107186358099612e-03,1.218026796589524903e-02,3.410475030450670075e-02,3.065717760000000180e-01,-3.065717760000000180e-01,9.350439168000001189e+00
1.691117385253539072e+18,4.872107186358099612e-03,9.744214372716199224e-03,3.166869671132764574e-02,3.065717760000000180e-01,-3.065717760000000180e-01,9.657010944000001373e+00
1.691117385263539200e+18,-7.308160779537149418e-03,9.744214372716199224e-03,2.557856272838002556e-02,1.532858880000000090e-01,-1.532858880000000090e-01,9.503725056000000393e+00
1.691117385273539072e+18,4.872107186358099612e-03,9.744214372716199224e-03,3.166869671132764574e-02,1.532858880000000090e-01,0.000000000000000000e+00,9.503725056000000393e+00
1.691117385283538944e+18,0.000000000000000000e+00,1.583434835566382287e-02,3.775883069427527633e-02,-1.532858880000000090e-01,0.000000000000000000e+00,9.657010944000001373e+00
1.691117385293539072e+18,-1.461632155907429884e-02,7.308160779537149418e-03,3.410475030450670075e-02,3.065717760000000180e-01,-3.065717760000000180e-01,9.657010944000001373e+00
1.691117385303538944e+18,6.090133982947624515e-03,1.461632155907429884e-02,3.045066991473812518e-02,1.532858880000000090e-01,-1.532858880000000090e-01,9.503725056000000393e+00
1.691117385313539072e+18,-1.218026796589524903e-03,7.308160779537149418e-03,2.314250913520097402e-02,1.532858880000000090e-01,0.000000000000000000e+00,9.503725056000000393e+00
1.691117385323538944e+18,0.000000000000000000e+00,1.096224116930572499e-02,2.923264311814859767e-02,3.065717760000000180e-01,0.000000000000000000e+00,9.657010944000001373e+00
1.691117385333539072e+18,-1.339829476248477480e-02,4.872107186358099612e-03,3.288672350791717325e-02,4.598576639999999993e-01,-1.532858880000000090e-01,9.503725056000000393e+00
1.691117385343538944e+18,8.526187576126675188e-03,1.218026796589524903e-02,3.775883069427527633e-02,1.532858880000000090e-01,-1.532858880000000090e-01,9.657010944000001373e+00
1.691117385353539072e+18,-1.218026796589524903e-03,8.526187576126675188e-03,3.897685749086479690e-02,1.532858880000000090e-01,-3.065717760000000180e-01,9.503725056000000393e+00
1.691117385363538944e+18,7.308160779537149418e-03,8.526187576126675188e-03,3.166869671132764574e-02,3.065717760000000180e-01,-1.532858880000000090e-01,9.657010944000001373e+00
1.691117385373539328e+18,4.872107186358099612e-03,8.526187576126675188e-03,3.045066991473812518e-02,1.532858880000000090e-01,0.000000000000000000e+00,9.503725056000000393e+00
1.691117385383539200e+18,1.218026796589524903e-03,1.218026796589524903e-02,2.923264311814859767e-02,0.000000000000000000e+00,-1.532858880000000090e-01,9.657010944000001373e+00
1.691117385393539072e+18,1.218026796589524903e-03,1.339829476248477480e-02,3.410475030450670075e-02,1.532858880000000090e-01,-1.532858880000000090e-01,9.657010944000001373e+00
1.691117385403539200e+18,2.436053593179049806e-03,6.090133982947624515e-03,3.288672350791717325e-02,1.532858880000000090e-01,-1.532858880000000090e-01,9.503725056000000393e+00
1.691117385413539072e+18,4.872107186358099612e-03,1.827040194884287441e-02,2.679658952496954960e-02,3.065717760000000180e-01,-1.532858880000000090e-01,9.503725056000000393e+00
1.691117385423539200e+18,-2.436053593179049806e-03,1.218026796589524903e-02,3.532277710109622132e-02,1.532858880000000090e-01,-1.532858880000000090e-01,9.657010944000001373e+00
1.691117385433539072e+18,1.096224116930572499e-02,8.526187576126675188e-03,3.410475030450670075e-02,1.532858880000000090e-01,-1.532858880000000090e-01,9.350439168000001189e+00
1.691117385443539200e+18,1.218026796589524903e-03,6.090133982947624515e-03,3.897685749086479690e-02,3.065717760000000180e-01,-1.532858880000000090e-01,9.657010944000001373e+00
1.691117385453539072e+18,1.096224116930572499e-02,1.218026796589524903e-03,2.923264311814859767e-02,1.532858880000000090e-01,-1.532858880000000090e-01,9.657010944000001373e+00
1.691117385463539200e+18,-6.090133982947624515e-03,3.654080389768574709e-03,3.410475030450670075e-02,0.000000000000000000e+00,-1.532858880000000090e-01,9.503725056000000393e+00
1.691117385473539072e+18,-8.526187576126675188e-03,1.096224116930572499e-02,3.897685749086479690e-02,-3.065717760000000180e-01,0.000000000000000000e+00,9.350439168000001189e+00
1.691117385483539200e+18,0.000000000000000000e+00,4.872107186358099612e-03,3.288672350791717325e-02,4.598576639999999993e-01,-1.532858880000000090e-01,9.657010944000001373e+00
1.691117385493539072e+18,0.000000000000000000e+00,1.583434835566382287e-02,2.801461632155907364e-02,4.598576639999999993e-01,-1.532858880000000090e-01,9.503725056000000393e+00
1.691117385503539200e+18,7.308160779537149418e-03,1.096224116930572499e-02,3.410475030450670075e-02,1.532858880000000090e-01,-1.532858880000000090e-01,9.657010944000001373e+00
1.691117385513539072e+18,-2.436053593179049806e-03,1.096224116930572499e-02,3.166869671132764574e-02,3.065717760000000180e-01,0.000000000000000000e+00,9.657010944000001373e+00
1.691117385523538944e+18,2.436053593179049806e-03,9.744214372716199224e-03,3.166869671132764574e-02,1.532858880000000090e-01,-3.065717760000000180e-01,9.503725056000000393e+00
1.691117385533539072e+18,-1.218026796589524903e-03,9.744214372716199224e-03,3.532277710109622132e-02,1.532858880000000090e-01,-1.532858880000000090e-01,9.503725056000000393e+00
1.691117385543538944e+18,6.090133982947624515e-03,1.461632155907429884e-02,3.045066991473812518e-02,3.065717760000000180e-01,-1.532858880000000090e-01,9.657010944000001373e+00
1.691117385553539072e+18,-2.436053593179049806e-03,1.218026796589524903e-02,3.897685749086479690e-02,-1.532858880000000090e-01,-1.532858880000000090e-01,9.657010944000001373e+00
1.691117385563538944e+18,3.654080389768574709e-03,3.654080389768574709e-03,4.019488428745432440e-02,3.065717760000000180e-01,-1.532858880000000090e-01,9.657010944000001373e+00
1.691117385573539072e+18,-1.218026796589524903e-03,1.461632155907429884e-02,2.557856272838002556e-02,1.532858880000000090e-01,0.000000000000000000e+00,9.503725056000000393e+00
1.691117385583538944e+18,1.583434835566382287e-02,1.461632155907429884e-02,3.775883069427527633e-02,3.065717760000000180e-01,-1.532858880000000090e-01,9.503725056000000393e+00
1.691117385593539072e+18,-7.308160779537149418e-03,8.526187576126675188e-03,3.410475030450670075e-02,-3.065717760000000180e-01,0.000000000000000000e+00,9.503725056000000393e+00
1.691117385603538944e+18,1.218026796589524903e-03,6.090133982947624515e-03,2.801461632155907364e-02,3.065717760000000180e-01,-1.532858880000000090e-01,9.503725056000000393e+00
1.691117385613539072e+18,9.744214372716199224e-03,8.526187576126675188e-03,3.532277710109622132e-02,3.065717760000000180e-01,-1.532858880000000090e-01,9.350439168000001189e+00
1.691117385623539200e+18,3.654080389768574709e-03,1.583434835566382287e-02,3.288672350791717325e-02,3.065717760000000180e-01,-1.532858880000000090e-01,9.503725056000000393e+00
1.691117385633539072e+18,6.090133982947624515e-03,1.339829476248477480e-02,3.045066991473812518e-02,1.532858880000000090e-01,0.000000000000000000e+00,9.503725056000000393e+00
1.691117385643539200e+18,-1.218026796589524903e-03,1.705237515225335038e-02,3.410475030450670075e-02,3.065717760000000180e-01,-3.065717760000000180e-01,9.503725056000000393e+00
1.691117385653539072e+18,0.000000000000000000e+00,6.090133982947624515e-03,3.897685749086479690e-02,3.065717760000000180e-01,-1.532858880000000090e-01,9.503725056000000393e+00
1.691117385663539200e+18,-8.526187576126675188e-03,3.654080389768574709e-03,3.166869671132764574e-02,0.000000000000000000e+00,-1.532858880000000090e-01,9.503725056000000393e+00
1.691117385673539072e+18,7.308160779537149418e-03,8.526187576126675188e-03,3.775883069427527633e-02,3.065717760000000180e-01,-1.532858880000000090e-01,9.503725056000000393e+00
1.691117385683539200e+18,-1.218026796589524903e-02,1.339829476248477480e-02,2.801461632155907364e-02,1.532858880000000090e-01,0.000000000000000000e+00,9.503725056000000393e+00
1.691117385693539072e+18,1.096224116930572499e-02,8.526187576126675188e-03,3.288672350791717325e-02,0.000000000000000000e+00,-1.532858880000000090e-01,9.503725056000000393e+00
1.691117385703539200e+18,-1.218026796589524903e-03,1.339829476248477480e-02,2.923264311814859767e-02,1.532858880000000090e-01,-1.532858880000000090e-01,9.657010944000001373e+00
1.691117385713539072e+18,3.654080389768574709e-03,6.090133982947624515e-03,3.410475030450670075e-02,-1.532858880000000090e-01,0.000000000000000000e+00,9.657010944000001373e+00
1.691117385723539200e+18,-3.654080389768574709e-03,8.526187576126675188e-03,3.532277710109622132e-02,0.000000000000000000e+00,-1.532858880000000090e-01,9.503725056000000393e+00
1.691117385733539072e+18,-1.218026796589524903e-03,6.090133982947624515e-03,2.557856272838002556e-02,1.532858880000000090e-01,0.000000000000000000e+00,9.503725056000000393e+00
1.691117385743539200e+18,3.654080389768574709e-03,1.339829476248477480e-02,3.654080389768574882e-02,3.065717760000000180e-01,-3.065717760000000180e-01,9.197153280000000208e+00
1.691117385753539072e+18,-1.339829476248477480e-02,4.872107186358099612e-03,3.166869671132764574e-02,0.000000000000000000e+00,-3.065717760000000180e-01,9.503725056000000393e+00
1.691117385763539200e+18,3.654080389768574709e-03,1.461632155907429884e-02,3.166869671132764574e-02,6.131435520000000361e-01,0.000000000000000000e+00,9.503725056000000393e+00
1.691117385773539072e+18,-1.218026796589524903e-03,1.218026796589524903e-03,2.679658952496954960e-02,1.532858880000000090e-01,-1.532858880000000090e-01,9.503725056000000393e+00
1.691117385783538944e+18,-2.436053593179049806e-03,7.308160779537149418e-03,3.775883069427527633e-02,3.065717760000000180e-01,-1.532858880000000090e-01,9.503725056000000393e+00
1.691117385793539072e+18,1.218026796589524903e-03,1.461632155907429884e-02,3.410475030450670075e-02,1.532858880000000090e-01,-1.532858880000000090e-01,9.657010944000001373e+00
1.691117385803538944e+18,-7.308160779537149418e-03,1.705237515225335038e-02,1.948842874543239845e-02,3.065717760000000180e-01,0.000000000000000000e+00,9.503725056000000393e+00
1.691117385813539072e+18,2.436053593179049806e-03,1.705237515225335038e-02,3.288672350791717325e-02,3.065717760000000180e-01,-1.532858880000000090e-01,9.503725056000000393e+00
1.691117385823538944e+18,3.654080389768574709e-03,8.526187576126675188e-03,3.532277710109622132e-02,0.000000000000000000e+00,-1.532858880000000090e-01,9.503725056000000393e+00
1.691117385833539072e+18,1.218026796589524903e-03,1.096224116930572499e-02,4.384896467722289998e-02,1.532858880000000090e-01,-1.532858880000000090e-01,9.657010944000001373e+00
1.691117385843538944e+18,4.872107186358099612e-03,1.218026796589524903e-02,3.288672350791717325e-02,3.065717760000000180e-01,-1.532858880000000090e-01,9.503725056000000393e+00
1.691117385853539072e+18,2.436053593179049806e-03,1.461632155907429884e-02,2.557856272838002556e-02,1.532858880000000090e-01,-1.532858880000000090e-01,9.657010944000001373e+00
1.691117385863538944e+18,-8.526187576126675188e-03,8.526187576126675188e-03,3.288672350791717325e-02,3.065717760000000180e-01,-1.532858880000000090e-01,9.503725056000000393e+00
1.691117385873539328e+18,8.526187576126675188e-03,8.526187576126675188e-03,2.923264311814859767e-02,3.065717760000000180e-01,-3.065717760000000180e-01,9.503725056000000393e+00
1.691117385883539200e+18,8.526187576126675188e-03,1.218026796589524903e-02,2.436053593179049806e-02,1.532858880000000090e-01,0.000000000000000000e+00,9.657010944000001373e+00
1.691117385893539072e+18,7.308160779537149418e-03,4.872107186358099612e-03,3.410475030450670075e-02,0.000000000000000000e+00,-1.532858880000000090e-01,9.657010944000001373e+00
1.691117385903539200e+18,-2.436053593179049806e-03,4.872107186358099612e-03,2.923264311814859767e-02,1.532858880000000090e-01,0.000000000000000000e+00,9.503725056000000393e+00
1.691117385913539072e+18,-8.526187576126675188e-03,1.096224116930572499e-02,2.679658952496954960e-02,0.000000000000000000e+00,-3.065717760000000180e-01,9.503725056000000393e+00
1.691117385923539200e+18,-2.436053593179049806e-03,6.090133982947624515e-03,3.897685749086479690e-02,0.000000000000000000e+00,-1.532858880000000090e-01,9.503725056000000393e+00
1.691117385933539072e+18,-4.872107186358099612e-03,1.705237515225335038e-02,3.045066991473812518e-02,0.000000000000000000e+00,0.000000000000000000e+00,9.503725056000000393e+00
1.691117385943539200e+18,-2.436053593179049806e-03,8.526187576126675188e-03,3.775883069427527633e-02,1.532858880000000090e-01,-1.532858880000000090e-01,9.503725056000000393e+00
1.691117385953539072e+18,-7.308160779537149418e-03,8.526187576126675188e-03,2.801461632155907364e-02,1.532858880000000090e-01,-1.532858880000000090e-01,9.503725056000000393e+00
1.691117385963539200e+18,-2.436053593179049806e-03,8.526187576126675188e-03,3.410475030450670075e-02,1.532858880000000090e-01,0.000000000000000000e+00,9.503725056000000393e+00
1.691117385973539072e+18,-2.436053593179049806e-03,6.090133982947624515e-03,3.410475030450670075e-02,-1.532858880000000090e-01,-1.532858880000000090e-01,9.350439168000001189e+00
1.691117385983539200e+18,2.436053593179049806e-03,7.308160779537149418e-03,3.775883069427527633e-02,1.532858880000000090e-01,-1.532858880000000090e-01,9.657010944000001373e+00
1.691117385993539072e+18,7.308160779537149418e-03,1.096224116930572499e-02,3.410475030450670075e-02,0.000000000000000000e+00,-1.532858880000000090e-01,9.657010944000001373e+00
1.691117386003539200e+18,4.872107186358099612e-03,1.096224116930572499e-02,3.654080389768574882e-02,3.065717760000000180e-01,0.000000000000000000e+00,9.657010944000001373e+00
1.691117386013539072e+18,4.872107186358099612e-03,6.090133982947624515e-03,4.384896467722289998e-02,0.000000000000000000e+00,0.000000000000000000e+00,9.657010944000001373e+00
1.691117386023538944e+18,4.872107186358099612e-03,8.526187576126675188e-03,3.775883069427527633e-02,0.000000000000000000e+00,0.000000000000000000e+00,9.503725056000000393e+00
1.691117386033539072e+18,0.000000000000000000e+00,9.744214372716199224e-03,3.288672350791717325e-02,3.065717760000000180e-01,-1.532858880000000090e-01,9.503725056000000393e+00
1.691117386043538944e+18,-7.308160779537149418e-03,1.339829476248477480e-02,2.923264311814859767e-02,3.065717760000000180e-01,-1.532858880000000090e-01,9.657010944000001373e+00
1.691117386053539072e+18,3.654080389768574709e-03,7.308160779537149418e-03,2.923264311814859767e-02,3.065717760000000180e-01,-1.532858880000000090e-01,9.810296832000000578e+00
1.691117386063538944e+18,8.526187576126675188e-03,8.526187576126675188e-03,3.288672350791717325e-02,3.065717760000000180e-01,-3.065717760000000180e-01,9.503725056000000393e+00
1.691117386073539072e+18,7.308160779537149418e-03,1.339829476248477480e-02,2.923264311814859767e-02,3.065717760000000180e-01,-1.532858880000000090e-01,9.657010944000001373e+00
1.691117386083538944e+18,7.308160779537149418e-03,1.461632155907429884e-02,2.923264311814859767e-02,1.532858880000000090e-01,-1.532858880000000090e-01,9.503725056000000393e+00
1.691117386093539072e+18,7.308160779537149418e-03,1.218026796589524903e-02,2.923264311814859767e-02,0.000000000000000000e+00,-1.532858880000000090e-01,9.503725056000000393e+00
1.691117386103538944e+18,3.654080389768574709e-03,8.526187576126675188e-03,3.045066991473812518e-02,1.532858880000000090e-01,0.000000000000000000e+00,9.657010944000001373e+00
1.691117386113539072e+18,-4.872107186358099612e-03,1.339829476248477480e-02,2.436053593179049806e-02,3.065717760000000180e-01,-1.532858880000000090e-01,9.503725056000000393e+00
1.691117386123539200e+18,-2.436053593179049806e-03,8.526187576126675188e-03,3.288672350791717325e-02,0.000000000000000000e+00,-1.532858880000000090e-01,9.503725056000000393e+00
1.691117386133539072e+18,-2.436053593179049806e-03,9.744214372716199224e-03,3.288672350791717325e-02,3.065717760000000180e-01,-1.532858880000000090e-01,9.657010944000001373e+00
1.691117386143539200e+18,-2.436053593179049806e-03,9.744214372716199224e-03,3.166869671132764574e-02,3.065717760000000180e-01,0.000000000000000000e+00,9.503725056000000393e+00
1.691117386153539072e+18,7.308160779537149418e-03,8.526187576126675188e-03,3.045066991473812518e-02,0.000000000000000000e+00,-1.532858880000000090e-01,9.503725056000000393e+00
1.691117386163539200e+18,-1.096224116930572499e-02,8.526187576126675188e-03,3.045066991473812518e-02,4.598576639999999993e-01,-1.532858880000000090e-01,9.657010944000001373e+00
1.691117386173539072e+18,6.090133982947624515e-03,1.096224116930572499e-02,2.679658952496954960e-02,3.065717760000000180e-01,-1.532858880000000090e-01,9.657010944000001373e+00
1.691117386183539200e+18,1.339829476248477480e-02,8.526187576126675188e-03,2.801461632155907364e-02,4.598576639999999993e-01,0.000000000000000000e+00,9.503725056000000393e+00
1.691117386193539072e+18,-4.872107186358099612e-03,1.339829476248477480e-02,3.045066991473812518e-02,1.532858880000000090e-01,-1.532858880000000090e-01,9.657010944000001373e+00
1.691117386203539200e+18,-1.218026796589524903e-03,1.339829476248477480e-02,2.923264311814859767e-02,0.000000000000000000e+00,-1.532858880000000090e-01,9.657010944000001373e+00
1.691117386213539072e+18,0.000000000000000000e+00,9.744214372716199224e-03,2.923264311814859767e-02,1.532858880000000090e-01,-1.532858880000000090e-01,9.657010944000001373e+00
1.691117386223539200e+18,7.308160779537149418e-03,7.308160779537149418e-03,3.166869671132764574e-02,3.065717760000000180e-01,-1.532858880000000090e-01,9.503725056000000393e+00
1.691117386233539072e+18,-9.744214372716199224e-03,7.308160779537149418e-03,2.192448233861144999e-02,1.532858880000000090e-01,-3.065717760000000180e-01,9.657010944000001373e+00
1.691117386243539200e+18,4.872107186358099612e-03,7.308160779537149418e-03,3.532277710109622132e-02,0.000000000000000000e+00,-1.532858880000000090e-01,9.350439168000001189e+00
1.691117386253539072e+18,4.872107186358099612e-03,4.872107186358099612e-03,3.897685749086479690e-02,0.000000000000000000e+00,-1.532858880000000090e-01,9.810296832000000578e+00
1.691117386263539200e+18,1.218026796589524903e-03,9.744214372716199224e-03,2.679658952496954960e-02,3.065717760000000180e-01,-1.532858880000000090e-01,9.657010944000001373e+00
1.691117386273539072e+18,-1.218026796589524903e-03,6.090133982947624515e-03,3.288672350791717325e-02,1.532858880000000090e-01,-1.532858880000000090e-01,9.503725056000000393e+00
1.691117386283538944e+18,2.436053593179049806e-03,1.461632155907429884e-02,3.166869671132764574e-02,1.532858880000000090e-01,-1.532858880000000090e-01,9.503725056000000393e+00
1.691117386293539072e+18,-6.090133982947624515e-03,3.654080389768574709e-03,3.166869671132764574e-02,0.000000000000000000e+00,-3.065717760000000180e-01,9.503725056000000393e+00
1.691117386303538944e+18,-3.654080389768574709e-03,1.218026796589524903e-02,3.532277710109622132e-02,3.065717760000000180e-01,-1.532858880000000090e-01,9.657010944000001373e+00
1.691117386313539072e+18,4.872107186358099612e-03,4.872107186358099612e-03,4.141291108404385191e-02,1.532858880000000090e-01,-1.532858880000000090e-01,9.657010944000001373e+00
1.691117386323538944e+18,0.000000000000000000e+00,8.526187576126675188e-03,2.436053593179049806e-02,4.598576639999999993e-01,0.000000000000000000e+00,9.503725056000000393e+00
1.691117386333539072e+18,2.436053593179049806e-03,4.872107186358099612e-03,2.679658952496954960e-02,1.532858880000000090e-01,-1.532858880000000090e-01,9.657010944000001373e+00
1.691117386343538944e+18,-7.308160779537149418e-03,1.583434835566382287e-02,2.801461632155907364e-02,3.065717760000000180e-01,-1.532858880000000090e-01,9.657010944000001373e+00
1.691117386353539072e+18,0.000000000000000000e+00,7.308160779537149418e-03,3.897685749086479690e-02,3.065717760000000180e-01,-1.532858880000000090e-01,9.503725056000000393e+00
1.691117386363538944e+18,0.000000000000000000e+00,1.948842874543239845e-02,2.436053593179049806e-02,0.000000000000000000e+00,-1.532858880000000090e-01,9.503725056000000393e+00
1.691117386373539328e+18,1.218026796589524903e-03,1.218026796589524903e-02,3.532277710109622132e-02,3.065717760000000180e-01,-1.532858880000000090e-01,9.657010944000001373e+00
1.691117386383539200e+18,1.218026796589524903e-03,1.339829476248477480e-02,3.410475030450670075e-02,0.000000000000000000e+00,-1.532858880000000090e-01,9.503725056000000393e+00
1.691117386393539072e+18,-4.872107186358099612e-03,1.339829476248477480e-02,2.679658952496954960e-02,4.598576639999999993e-01,-3.065717760000000180e-01,9.503725056000000393e+00
1.691117386403539200e+18,9.744214372716199224e-03,1.218026796589524903e-02,3.166869671132764574e-02,1.532858880000000090e-01,-1.532858880000000090e-01,9.657010944000001373e+00
1.691117386413539072e+18,2.436053593179049806e-03,8.526187576126675188e-03,3.166869671132764574e-02,1.532858880000000090e-01,-1.532858880000000090e-01,9.503725056000000393e+00
1.691117386423539200e+18,6.090133982947624515e-03,1.096224116930572499e-02,3.288672350791717325e-02,1.532858880000000090e-01,-1.532858880000000090e-01,9.657010944000001373e+00
1.691117386433539072e+18,4.872107186358099612e-03,1.096224116930572499e-02,3.166869671132764574e-02,1.532858880000000090e-01,0.000000000000000000e+00,9.657010944000001373e+00
1.691117386443539200e+18,1.218026796589524903e-03,1.339829476248477480e-02,3.166869671132764574e-02,3.065717760000000180e-01,-1.532858880000000090e-01,9.503725056000000393e+00
1.691117386453539072e+18,9.744214372716199224e-03,7.308160779537149418e-03,3.897685749086479690e-02,3.065717760000000180e-01,-1.532858880000000090e-01,9.657010944000001373e+00
1.691117386463539200e+18,4.872107186358099612e-03,7.308160779537149418e-03,3.288672350791717325e-02,0.000000000000000000e+00,-1.532858880000000090e-01,9.503725056000000393e+00
1.691117386473539072e+18,-1.218026796589524903e-03,2.436053593179049806e-03,3.897685749086479690e-02,3.065717760000000180e-01,-1.532858880000000090e-01,9.503725056000000393e+00
1.691117386483539200e+18,1.218026796589524903e-03,1.096224116930572499e-02,3.532277710109622132e-02,-1.532858880000000090e-01,-1.532858880000000090e-01,9.503725056000000393e+00
1.691117386493539072e+18,-7.308160779537149418e-03,8.526187576126675188e-03,2.679658952496954960e-02,1.532858880000000090e-01,-1.532858880000000090e-01,9.657010944000001373e+00
1.691117386503539200e+18,2.436053593179049806e-03,7.308160779537149418e-03,3.532277710109622132e-02,1.532858880000000090e-01,-1.532858880000000090e-01,9.503725056000000393e+00
1.691117386513539072e+18,8.526187576126675188e-03,1.218026796589524903e-02,3.288672350791717325e-02,0.000000000000000000e+00,-1.532858880000000090e-01,9.503725056000000393e+00
1.691117386523538944e+18,-7.308160779537149418e-03,7.308160779537149418e-03,2.557856272838002556e-02,1.532858880000000090e-01,-3.065717760000000180e-01,9.657010944000001373e+00
1.691117386533539072e+18,0.000000000000000000e+00,7.308160779537149418e-03,4.019488428745432440e-02,1.532858880000000090e-01,-3.065717760000000180e-01,9.503725056000000393e+00
1.691117386543538944e+18,2.436053593179049806e-03,9.744214372716199224e-03,2.679658952496954960e-02,1.532858880000000090e-01,-1.532858880000000090e-01,9.657010944000001373e+00
1.691117386553539072e+18,6.090133982947624515e-03,1.705237515225335038e-02,3.166869671132764574e-02,4.598576639999999993e-01,-1.532858880000000090e-01,9.350439168000001189e+00
1.691117386563538944e+18,-3.654080389768574709e-03,7.308160779537149418e-03,2.314250913520097402e-02,1.532858880000000090e-01,-1.532858880000000090e-01,9.503725056000000393e+00
1.691117386573539072e+18,0.000000000000000000e+00,7.308160779537149418e-03,4.019488428745432440e-02,1.532858880000000090e-01,-1.532858880000000090e-01,9.503725056000000393e+00
1.691117386583538944e+18,-3.654080389768574709e-03,1.096224116930572499e-02,3.166869671132764574e-02,0.000000000000000000e+00,0.000000000000000000e+00,9.503725056000000393e+00
1.691117386593539072e+18,3.654080389768574709e-03,1.461632155907429884e-02,2.679658952496954960e-02,3.065717760000000180e-01,-3.065717760000000180e-01,9.657010944000001373e+00
1.691117386603538944e+18,1.218026796589524903e-03,1.218026796589524903e-02,3.288672350791717325e-02,1.532858880000000090e-01,-1.532858880000000090e-01,9.810296832000000578e+00
1.691117386613539072e+18,-4.872107186358099612e-03,9.744214372716199224e-03,2.557856272838002556e-02,-1.532858880000000090e-01,-1.532858880000000090e-01,9.657010944000001373e+00
1.691117386623539200e+18,9.744214372716199224e-03,2.436053593179049806e-03,2.923264311814859767e-02,0.000000000000000000e+00,-1.532858880000000090e-01,9.503725056000000393e+00
1.691117386633539072e+18,-4.872107186358099612e-03,1.096224116930572499e-02,2.801461632155907364e-02,4.598576639999999993e-01,-3.065717760000000180e-01,9.350439168000001189e+00
1.691117386643539200e+18,6.090133982947624515e-03,1.096224116930572499e-02,2.923264311814859767e-02,3.065717760000000180e-01,0.000000000000000000e+00,9.503725056000000393e+00
1.691117386653539072e+18,0.000000000000000000e+00,6.090133982947624515e-03,3.897685749086479690e-02,4.598576639999999993e-01,-1.532858880000000090e-01,9.503725056000000393e+00
1.691117386663539200e+18,2.436053593179049806e-03,1.339829476248477480e-02,3.532277710109622132e-02,3.065717760000000180e-01,-1.532858880000000090e-01,9.503725056000000393e+00
1.691117386673539072e+18,6.090133982947624515e-03,1.218026796589524903e-02,2.801461632155907364e-02,3.065717760000000180e-01,-1.532858880000000090e-01,9.657010944000001373e+00
1.691117386683539200e+18,4.872107186358099612e-03,3.654080389768574709e-03,3.045066991473812518e-02,1.532858880000000090e-01,-1.532858880000000090e-01,9.503725056000000393e+00
1.691117386693539072e+18,3.654080389768574709e-03,1.339829476248477480e-02,2.923264311814859767e-02,0.000000000000000000e+00,-1.532858880000000090e-01,9.657010944000001373e+00
1.691117386703539200e+18,-3.654080389768574709e-03,7.308160779537149418e-03,2.679658952496954960e-02,1.532858880000000090e-01,-1.532858880000000090e-01,9.503725056000000393e+00
1.691117386713539072e+18,4.872107186358099612e-03,7.308160779537149418e-03,2.923264311814859767e-02,6.131435520000000361e-01,0.000000000000000000e+00,9.657010944000001373e+00
1.691117386723539200e+18,-2.436053593179049806e-03,1.218026796589524903e-02,3.897685749086479690e-02,1.532858880000000090e-01,-1.532858880000000090e-01,9.503725056000000393e+00
1.691117386733539072e+18,0.000000000000000000e+00,1.339829476248477480e-02,3.532277710109622132e-02,1.532858880000000090e-01,-1.532858880000000090e-01,9.503725056000000393e+00
1.691117386743539200e+18,4.872107186358099612e-03,1.339829476248477480e-02,2.557856272838002556e-02,1.532858880000000090e-01,-1.532858880000000090e-01,9.503725056000000393e+00
1.691117386753539072e+18,1.218026796589524903e-02,9.744214372716199224e-03,4.384896467722289998e-02,3.065717760000000180e-01,-3.065717760000000180e-01,9.657010944000001373e+00
1.691117386763539200e+18,1.218026796589524903e-03,1.096224116930572499e-02,2.801461632155907364e-02,3.065717760000000180e-01,-1.532858880000000090e-01,9.657010944000001373e+00
1.691117386773539072e+18,3.654080389768574709e-03,6.090133982947624515e-03,2.923264311814859767e-02,3.065717760000000180e-01,-1.532858880000000090e-01,9.657010944000001373e+00
1.691117386783538944e+18,7.308160779537149418e-03,1.218026796589524903e-02,3.288672350791717325e-02,3.065717760000000180e-01,0.000000000000000000e+00,9.810296832000000578e+00
1.691117386793539072e+18,8.526187576126675188e-03,1.339829476248477480e-02,3.410475030450670075e-02,3.065717760000000180e-01,-1.532858880000000090e-01,9.503725056000000393e+00
1.691117386803538944e+18,-2.436053593179049806e-03,8.526187576126675188e-03,3.654080389768574882e-02,3.065717760000000180e-01,-1.532858880000000090e-01,9.503725056000000393e+00
1.691117386813539072e+18,-1.218026796589524903e-03,1.339829476248477480e-02,3.166869671132764574e-02,3.065717760000000180e-01,-1.532858880000000090e-01,9.657010944000001373e+00
1.691117386823538944e+18,1.218026796589524903e-03,1.096224116930572499e-02,4.872107186358099612e-02,3.065717760000000180e-01,0.000000000000000000e+00,9.503725056000000393e+00
1.691117386833539072e+18,3.654080389768574709e-03,8.526187576126675188e-03,3.166869671132764574e-02,3.065717760000000180e-01,-1.532858880000000090e-01,9.503725056000000393e+00
1.691117386843538944e+18,8.526187576126675188e-03,9.744214372716199224e-03,3.166869671132764574e-02,1.532858880000000090e-01,-1.532858880000000090e-01,9.503725056000000393e+00
1.691117386853539072e+18,-1.218026796589524903e-03,8.526187576126675188e-03,4.141291108404385191e-02,4.598576639999999993e-01,-1.532858880000000090e-01,9.657010944000001373e+00
1.691117386863538944e+18,1.218026796589524903e-03,7.308160779537149418e-03,3.532277710109622132e-02,3.065717760000000180e-01,0.000000000000000000e+00,9.503725056000000393e+00
1.691117386873539328e+18,-3.654080389768574709e-03,9.744214372716199224e-03,3.166869671132764574e-02,0.000000000000000000e+00,-3.065717760000000180e-01,9.657010944000001373e+00
1.691117386883539200e+18,-3.654080389768574709e-03,-2.436053593179049806e-03,3.410475030450670075e-02,4.598576639999999993e-01,-1.532858880000000090e-01,9.503725056000000393e+00
1.691117386893539072e+18,4.872107186358099612e-03,6.090133982947624515e-03,2.679658952496954960e-02,-1.532858880000000090e-01,0.000000000000000000e+00,9.810296832000000578e+00
1.691117386903539200e+18,4.872107186358099612e-03,1.948842874543239845e-02,2.923264311814859767e-02,4.598576639999999993e-01,-1.532858880000000090e-01,9.503725056000000393e+00
1.691117386913539072e+18,7.308160779537149418e-03,1.461632155907429884e-02,3.897685749086479690e-02,0.000000000000000000e+00,0.000000000000000000e+00,9.503725056000000393e+00
1.691117386923539200e+18,1.218026796589524903e-03,1.583434835566382287e-02,3.410475030450670075e-02,3.065717760000000180e-01,-1.532858880000000090e-01,9.503725056000000393e+00
1.691117386933539072e+18,1.461632155907429884e-02,9.744214372716199224e-03,3.166869671132764574e-02,3.065717760000000180e-01,-1.532858880000000090e-01,9.657010944000001373e+00
1.691117386943539200e+18,-1.218026796589524903e-03,9.744214372716199224e-03,2.801461632155907364e-02,1.532858880000000090e-01,0.000000000000000000e+00,9.503725056000000393e+00
1.691117386953539072e+18,1.218026796589524903e-03,1.218026796589524903e-03,3.654080389768574882e-02,1.532858880000000090e-01,0.000000000000000000e+00,9.657010944000001373e+00
1.691117386963539200e+18,-1.218026796589524903e-03,9.744214372716199224e-03,2.679658952496954960e-02,1.532858880000000090e-01,-1.532858880000000090e-01,9.657010944000001373e+00
1.691117386973539072e+18,4.872107186358099612e-03,6.090133982947624515e-03,2.923264311814859767e-02,1.532858880000000090e-01,0.000000000000000000e+00,9.657010944000001373e+00
1.691117386983539200e+18,0.000000000000000000e+00,6.090133982947624515e-03,3.288672350791717325e-02,0.000000000000000000e+00,-1.532858880000000090e-01,9.503725056000000393e+00
1.691117386993539072e+18,1.218026796589524903e-03,1.339829476248477480e-02,2.557856272838002556e-02,1.532858880000000090e-01,-1.532858880000000090e-01,9.503725056000000393e+00
1.691117387003539200e+18,1.218026796589524903e-03,8.526187576126675188e-03,3.410475030450670075e-02,3.065717760000000180e-01,-1.532858880000000090e-01,9.657010944000001373e+00
1.691117387013539072e+18,8.526187576126675188e-03,1.096224116930572499e-02,3.288672350791717325e-02,1.532858880000000090e-01,-1.532858880000000090e-01,9.350439168000001189e+00
1.691117387023538944e+18,6.090133982947624515e-03,1.339829476248477480e-02,2.801461632155907364e-02,0.000000000000000000e+00,-1.532858880000000090e-01,9.657010944000001373e+00
1.691117387033539072e+18,-1.096224116930572499e-02,6.090133982947624515e-03,3.897685749086479690e-02,1.532858880000000090e-01,-3.065717760000000180e-01,9.503725056000000393e+00
1.691117387043538944e+18,8.526187576126675188e-03,2.436053593179049806e-03,3.045066991473812518e-02,1.532858880000000090e-01,-1.532858880000000090e-01,9.657010944000001373e+00
1.691117387053539072e+18,0.000000000000000000e+00,1.339829476248477480e-02,3.166869671132764574e-02,1.532858880000000090e-01,-1.532858880000000090e-01,9.657010944000001373e+00
1.691117387063538944e+18,1.096224116930572499e-02,4.872107186358099612e-03,2.801461632155907364e-02,7.664294400000000174e-01,-1.532858880000000090e-01,9.810296832000000578e+00
1.691117387073539072e+18,1.218026796589524903e-03,1.218026796589524903e-02,2.314250913520097402e-02,3.065717760000000180e-01,-3.065717760000000180e-01,9.350439168000001189e+00
1.691117387083538944e+18,0.000000000000000000e+00,1.218026796589524903e-02,3.288672350791717325e-02,1.532858880000000090e-01,-1.532858880000000090e-01,9.503725056000000393e+00
1.691117387093539072e+18,2.436053593179049806e-03,1.705237515225335038e-02,3.166869671132764574e-02,3.065717760000000180e-01,-1.532858880000000090e-01,9.503725056000000393e+00
1.691117387103538944e+18,7.308160779537149418e-03,8.526187576126675188e-03,2.679658952496954960e-02,1.532858880000000090e-01,-1.532858880000000090e-01,9.503725056000000393e+00
1.691117387113539072e+18,0.000000000000000000e+00,1.339829476248477480e-02,3.654080389768574882e-02,3.065717760000000180e-01,0.000000000000000000e+00,9.657010944000001373e+00
1.691117387123539200e+18,2.436053593179049806e-03,1.461632155907429884e-02,3.045066991473812518e-02,1.532858880000000090e-01,-1.532858880000000090e-01,9.503725056000000393e+00
1.691117387133539072e+18,3.654080389768574709e-03,8.526187576126675188e-03,3.654080389768574882e-02,4.598576639999999993e-01,-1.532858880000000090e-01,9.657010944000001373e+00
1.691117387143539200e+18,-8.526187576126675188e-03,1.218026796589524903e-02,2.923264311814859767e-02,0.000000000000000000e+00,-1.532858880000000090e-01,9.350439168000001189e+00
1.691117387153539072e+18,-8.526187576126675188e-03,3.654080389768574709e-03,3.166869671132764574e-02,1.532858880000000090e-01,-1.532858880000000090e-01,9.657010944000001373e+00
1.691117387163539200e+18,1.218026796589524903e-03,1.096224116930572499e-02,3.166869671132764574e-02,1.532858880000000090e-01,-1.532858880000000090e-01,9.503725056000000393e+00
1.691117387173539072e+18,4.872107186358099612e-03,1.705237515225335038e-02,3.775883069427527633e-02,3.065717760000000180e-01,-1.532858880000000090e-01,9.503725056000000393e+00
1.691117387183539200e+18,6.090133982947624515e-03,1.218026796589524903e-02,3.166869671132764574e-02,3.065717760000000180e-01,-1.532858880000000090e-01,9.657010944000001373e+00
1.691117387193539072e+18,4.872107186358099612e-03,8.526187576126675188e-03,2.436053593179049806e-02,4.598576639999999993e-01,-1.532858880000000090e-01,9.503725056000000393e+00
1.691117387203539200e+18,1.218026796589524903e-02,1.096224116930572499e-02,3.288672350791717325e-02,3.065717760000000180e-01,0.000000000000000000e+00,9.503725056000000393e+00
1.691117387213539072e+18,0.000000000000000000e+00,1.218026796589524903e-02,2.314250913520097402e-02,0.000000000000000000e+00,0.000000000000000000e+00,9.503725056000000393e+00
1.691117387223539200e+18,7.308160779537149418e-03,1.339829476248477480e-02,3.654080389768574882e-02,3.065717760000000180e-01,-1.532858880000000090e-01,9.503725056000000393e+00
1.691117387233539072e+18,4.872107186358099612e-03,9.744214372716199224e-03,2.436053593179049806e-02,4.598576639999999993e-01,-1.532858880000000090e-01,9.657010944000001373e+00
1.691117387243539200e+18,1.096224116930572499e-02,1.461632155907429884e-02,2.801461632155907364e-02,0.000000000000000000e+00,-3.065717760000000180e-01,9.657010944000001373e+00
1.691117387253539072e+18,6.090133982947624515e-03,7.308160779537149418e-03,3.775883069427527633e-02,-1.532858880000000090e-01,0.000000000000000000e+00,9.503725056000000393e+00
1.691117387263539200e+18,6.090133982947624515e-03,1.339829476248477480e-02,2.923264311814859767e-02,3.065717760000000180e-01,-3.065717760000000180e-01,9.503725056000000393e+00
1.691117387273539072e+18,-9.744214372716199224e-03,8.526187576126675188e-03,2.923264311814859767e-02,1.532858880000000090e-01,-1.532858880000000090e-01,9.503725056000000393e+00
1.691117387283538944e+18,1.339829476248477480e-02,1.218026796589524903e-02,2.923264311814859767e-02,1.532858880000000090e-01,0.000000000000000000e+00,9.503725056000000393e+00
1.691117387293539072e+18,3.654080389768574709e-03,1.461632155907429884e-02,2.436053593179049806e-02,0.000000000000000000e+00,0.000000000000000000e+00,9.657010944000001373e+00
1.691117387303538944e+18,2.436053593179049806e-03,1.339829476248477480e-02,2.801461632155907364e-02,1.532858880000000090e-01,-1.532858880000000090e-01,9.503725056000000393e+00
1.691117387313539072e+18,2.436053593179049806e-03,1.339829476248477480e-02,3.532277710109622132e-02,4.598576639999999993e-01,-1.532858880000000090e-01,9.503725056000000393e+00
1.691117387323538944e+18,2.436053593179049806e-03,1.096224116930572499e-02,2.557856272838002556e-02,0.000000000000000000e+00,-1.532858880000000090e-01,9.657010944000001373e+00
1.691117387333539072e+18,4.872107186358099612e-03,1.461632155907429884e-02,3.045066991473812518e-02,1.532858880000000090e-01,-1.532858880000000090e-01,9.657010944000001373e+00
1.691117387343538944e+18,0.000000000000000000e+00,9.744214372716199224e-03,3.045066991473812518e-02,3.065717760000000180e-01,0.000000000000000000e+00,9.503725056000000393e+00
1.691117387353539072e+18,-6.090133982947624515e-03,8.526187576126675188e-03,3.532277710109622132e-02,1.532858880000000090e-01,-1.532858880000000090e-01,9.503725056000000393e+00
1.691117387363538944e+18,4.872107186358099612e-03,8.526187576126675188e-03,3.654080389768574882e-02,1.532858880000000090e-01,-1.532858880000000090e-01,9.503725056000000393e+00
1.691117387373539328e+18,1.096224116930572499e-02,7.308160779537149418e-03,2.923264311814859767e-02,0.000000000000000000e+00,0.000000000000000000e+00,9.503725056000000393e+00
1.691117387383539200e+18,-2.436053593179049806e-03,1.218026796589524903e-02,3.410475030450670075e-02,1.532858880000000090e-01,-1.532858880000000090e-01,9.503725056000000393e+00
1.691117387393539072e+18,6.090133982947624515e-03,8.526187576126675188e-03,3.166869671132764574e-02,1.532858880000000090e-01,0.000000000000000000e+00,9.657010944000001373e+00
1.691117387403539200e+18,1.218026796589524903e-03,1.461632155907429884e-02,3.654080389768574882e-02,1.532858880000000090e-01,0.000000000000000000e+00,9.503725056000000393e+00
1.691117387413539072e+18,1.339829476248477480e-02,9.744214372716199224e-03,2.801461632155907364e-02,3.065717760000000180e-01,-1.532858880000000090e-01,9.503725056000000393e+00
1.691117387423539200e+18,3.654080389768574709e-03,2.436053593179049806e-03,2.923264311814859767e-02,4.598576639999999993e-01,-1.532858880000000090e-01,9.503725056000000393e+00
1.691117387433539072e+18,3.654080389768574709e-03,1.339829476248477480e-02,3.897685749086479690e-02,-1.532858880000000090e-01,-1.532858880000000090e-01,9.657010944000001373e+00
1.691117387443539200e+18,1.218026796589524903e-03,3.654080389768574709e-03,3.654080389768574882e-02,3.065717760000000180e-01,-1.532858880000000090e-01,9.657010944000001373e+00
1.691117387453539072e+18,3.654080389768574709e-03,1.461632155907429884e-02,3.410475030450670075e-02,1.532858880000000090e-01,0.000000000000000000e+00,9.657010944000001373e+00
1.691117387463539200e+18,4.872107186358099612e-03,1.096224116930572499e-02,3.045066991473812518e-02,1.532858880000000090e-01,0.000000000000000000e+00,9.503725056000000393e+00
1.691117387473539072e+18,-6.090133982947624515e-03,7.308160779537149418e-03,3.654080389768574882e-02,3.065717760000000180e-01,0.000000000000000000e+00,9.350439168000001189e+00
1.691117387483539200e+18,6.090133982947624515e-03,7.308160779537149418e-03,3.166869671132764574e-02,4.598576639999999993e-01,-3.065717760000000180e-01,9.657010944000001373e+00
1.691117387493539072e+18,6.090133982947624515e-03,8.526187576126675188e-03,4.019488428745432440e-02,3.065717760000000180e-01,-1.532858880000000090e-01,9.503725056000000393e+00
1.691117387503539200e+18,2.436053593179049806e-03,1.096224116930572499e-02,2.923264311814859767e-02,4.598576639999999993e-01,-3.065717760000000180e-01,9.350439168000001189e+00
1.691117387513539072e+18,4.872107186358099612e-03,4.872107186358099612e-03,2.923264311814859767e-02,1.532858880000000090e-01,0.000000000000000000e+00,9.503725056000000393e+00
1.691117387523538944e+18,-2.436053593179049806e-03,1.218026796589524903e-02,3.288672350791717325e-02,0.000000000000000000e+00,0.000000000000000000e+00,9.350439168000001189e+00
1.691117387533539072e+18,6.090133982947624515e-03,1.583434835566382287e-02,2.436053593179049806e-02,3.065717760000000180e-01,-1.532858880000000090e-01,9.503725056000000393e+00
1.691117387543538944e+18,9.744214372716199224e-03,1.461632155907429884e-02,3.045066991473812518e-02,3.065717760000000180e-01,-3.065717760000000180e-01,9.657010944000001373e+00
1.691117387553539072e+18,-3.654080389768574709e-03,1.461632155907429884e-02,3.166869671132764574e-02,1.532858880000000090e-01,-1.532858880000000090e-01,9.657010944000001373e+00
1.691117387563538944e+18,3.654080389768574709e-03,8.526187576126675188e-03,3.166869671132764574e-02,1.532858880000000090e-01,-1.532858880000000090e-01,9.657010944000001373e+00
1.691117387573539072e+18,0.000000000000000000e+00,1.339829476248477480e-02,3.775883069427527633e-02,3.065717760000000180e-01,-1.532858880000000090e-01,9.657010944000001373e+00
1.691117387583538944e+18,-2.436053593179049806e-03,6.090133982947624515e-03,3.410475030450670075e-02,1.532858880000000090e-01,-1.532858880000000090e-01,9.657010944000001373e+00
1.691117387593539072e+18,1.218026796589524903e-02,8.526187576126675188e-03,2.923264311814859767e-02,1.532858880000000090e-01,-1.532858880000000090e-01,9.503725056000000393e+00
1.691117387603538944e+18,1.218026796589524903e-03,4.872107186358099612e-03,3.288672350791717325e-02,3.065717760000000180e-01,0.000000000000000000e+00,9.503725056000000393e+00
1.691117387613539072e+18,7.308160779537149418e-03,8.526187576126675188e-03,3.166869671132764574e-02,3.065717760000000180e-01,-1.532858880000000090e-01,9.503725056000000393e+00
1.691117387623539200e+18,-6.090133982947624515e-03,1.218026796589524903e-02,3.410475030450670075e-02,1.532858880000000090e-01,-1.532858880000000090e-01,9.503725056000000393e+00
1.691117387633539072e+18,-7.308160779537149418e-03,4.872107186358099612e-03,2.679658952496954960e-02,3.065717760000000180e-01,-1.532858880000000090e-01,9.503725056000000393e+00
1.691117387643539200e+18,2.436053593179049806e-03,9.744214372716199224e-03,3.775883069427527633e-02,3.065717760000000180e-01,-1.532858880000000090e-01,9.503725056000000393e+00
1.691117387653539072e+18,0.000000000000000000e+00,1.218026796589524903e-02,3.654080389768574882e-02,0.000000000000000000e+00,-1.532858880000000090e-01,9.503725056000000393e+00
1.691117387663539200e+18,0.000000000000000000e+00,9.744214372716199224e-03,2.314250913520097402e-02,1.532858880000000090e-01,0.000000000000000000e+00,9.503725056000000393e+00
1.691117387673539072e+18,-8.526187576126675188e-03,9.744214372716199224e-03,3.897685749086479690e-02,3.065717760000000180e-01,-1.532858880000000090e-01,9.810296832000000578e+00
1.691117387683539200e+18,-9.744214372716199224e-03,9.744214372716199224e-03,2.801461632155907364e-02,1.532858880000000090e-01,-1.532858880000000090e-01,9.657010944000001373e+00
1.691117387693539072e+18,6.090133982947624515e-03,4.872107186358099612e-03,3.410475030450670075e-02,3.065717760000000180e-01,-1.532858880000000090e-01,9.503725056000000393e+00
1.691117387703539200e+18,1.339829476248477480e-02,8.526187576126675188e-03,3.288672350791717325e-02,0.000000000000000000e+00,-1.532858880000000090e-01,9.657010944000001373e+00
1.691117387713539072e+18,2.436053593179049806e-03,1.339829476248477480e-02,2.557856272838002556e-02,3.065717760000000180e-01,-1.532858880000000090e-01,9.963582719999999782e+00
1.691117387723539200e+18,-8.526187576126675188e-03,6.090133982947624515e-03,3.045066991473812518e-02,1.532858880000000090e-01,-1.532858880000000090e-01,9.657010944000001373e+00
1.691117387733539072e+18,-3.654080389768574709e-03,4.872107186358099612e-03,3.897685749086479690e-02,1.532858880000000090e-01,-1.532858880000000090e-01,9.657010944000001373e+00
1.691117387743539200e+18,-1.218026796589524903e-03,8.526187576126675188e-03,3.897685749086479690e-02,3.065717760000000180e-01,0.000000000000000000e+00,9.657010944000001373e+00
1.691117387753539072e+18,4.872107186358099612e-03,6.090133982947624515e-03,3.654080389768574882e-02,3.065717760000000180e-01,-1.532858880000000090e-01,9.657010944000001373e+00
1.691117387763539200e+18,3.654080389768574709e-03,1.096224116930572499e-02,3.288672350791717325e-02,1.532858880000000090e-01,-3.065717760000000180e-01,9.657010944000001373e+00
1.691117387773539072e+18,3.654080389768574709e-03,9.744214372716199224e-03,3.045066991473812518e-02,3.065717760000000180e-01,-1.532858880000000090e-01,9.657010944000001373e+00
1.691117387783538944e+18,1.218026796589524903e-03,1.218026796589524903e-02,4.019488428745432440e-02,1.532858880000000090e-01,-1.532858880000000090e-01,9.657010944000001373e+00
1.691117387793539072e+18,-1.218026796589524903e-03,8.526187576126675188e-03,2.923264311814859767e-02,3.065717760000000180e-01,-3.065717760000000180e-01,9.503725056000000393e+00
1.691117387803538944e+18,0.000000000000000000e+00,1.583434835566382287e-02,3.166869671132764574e-02,-1.532858880000000090e-01,-1.532858880000000090e-01,9.657010944000001373e+00
1.691117387813539072e+18,1.096224116930572499e-02,8.526187576126675188e-03,3.532277710109622132e-02,3.065717760000000180e-01,-1.532858880000000090e-01,9.657010944000001373e+00
1.691117387823538944e+18,0.000000000000000000e+00,9.744214372716199224e-03,3.288672350791717325e-02,1.532858880000000090e-01,-3.065717760000000180e-01,9.657010944000001373e+00
1.691117387833539072e+18,1.339829476248477480e-02,1.218026796589524903e-02,2.679658952496954960e-02,7.664294400000000174e-01,-1.532858880000000090e-01,9.657010944000001373e+00
1.691117387843538944e+18,-1.218026796589524903e-03,8.526187576126675188e-03,3.532277710109622132e-02,1.532858880000000090e-01,-1.532858880000000090e-01,9.657010944000001373e+00
1.691117387853539072e+18,2.436053593179049806e-03,8.526187576126675188e-03,3.410475030450670075e-02,0.000000000000000000e+00,0.000000000000000000e+00,9.657010944000001373e+00
1.691117387863538944e+18,-7.308160779537149418e-03,1.461632155907429884e-02,3.166869671132764574e-02,4.598576639999999993e-01,-1.532858880000000090e-01,9.503725056000000393e+00
1.691117387873539328e+18,6.090133982947624515e-03,9.744214372716199224e-03,2.679658952496954960e-02,1.532858880000000090e-01,0.000000000000000000e+00,9.657010944000001373e+00
1.691117387883539200e+18,0.000000000000000000e+00,1.096224116930572499e-02,2.801461632155907364e-02,3.065717760000000180e-01,-1.532858880000000090e-01,9.657010944000001373e+00
1.691117387893539072e+18,6.090133982947624515e-03,1.461632155907429884e-02,3.897685749086479690e-02,0.000000000000000000e+00,0.000000000000000000e+00,9.503725056000000393e+00
1.691117387903539200e+18,-1.339829476248477480e-02,7.308160779537149418e-03,3.045066991473812518e-02,4.598576639999999993e-01,-1.532858880000000090e-01,9.503725056000000393e+00
1.691117387913539072e+18,0.000000000000000000e+00,9.744214372716199224e-03,3.166869671132764574e-02,3.065717760000000180e-01,0.000000000000000000e+00,9.503725056000000393e+00
1.691117387923539200e+18,1.218026796589524903e-03,1.339829476248477480e-02,3.045066991473812518e-02,3.065717760000000180e-01,-1.532858880000000090e-01,9.657010944000001373e+00
1.691117387933539072e+18,7.308160779537149418e-03,6.090133982947624515e-03,2.923264311814859767e-02,4.598576639999999993e-01,-3.065717760000000180e-01,9.503725056000000393e+00
1.691117387943539200e+18,4.872107186358099612e-03,1.583434835566382287e-02,3.045066991473812518e-02,1.532858880000000090e-01,-1.532858880000000090e-01,9.503725056000000393e+00
1.691117387953539072e+18,4.872107186358099612e-03,4.872107186358099612e-03,3.166869671132764574e-02,1.532858880000000090e-01,-1.532858880000000090e-01,9.657010944000001373e+00
1.691117387963539200e+18,7.308160779537149418e-03,6.090133982947624515e-03,3.045066991473812518e-02,0.000000000000000000e+00,-1.532858880000000090e-01,9.657010944000001373e+00
1.691117387973539072e+18,0.000000000000000000e+00,1.096224116930572499e-02,3.532277710109622132e-02,3.065717760000000180e-01,-3.065717760000000180e-01,9.657010944000001373e+00
1.691117387983539200e+18,1.218026796589524903e-03,9.744214372716199224e-03,3.410475030450670075e-02,0.000000000000000000e+00,-1.532858880000000090e-01,9.657010944000001373e+00
1.691117387993539072e+18,3.654080389768574709e-03,6.090133982947624515e-03,3.288672350791717325e-02,4.598576639999999993e-01,-1.532858880000000090e-01,9.657010944000001373e+00
1.691117388003539200e+18,2.436053593179049806e-03,7.308160779537149418e-03,3.897685749086479690e-02,1.532858880000000090e-01,-1.532858880000000090e-01,9.503725056000000393e+00
1.691117388013539072e+18,2.436053593179049806e-03,1.218026796589524903e-02,3.288672350791717325e-02,3.065717760000000180e-01,-1.532858880000000090e-01,9.503725056000000393e+00
1.691117388023538944e+18,0.000000000000000000e+00,2.314250913520097402e-02,3.288672350791717325e-02,3.065717760000000180e-01,-1.532858880000000090e-01,9.503725056000000393e+00
1.691117388033539072e+18,3.654080389768574709e-03,1.218026796589524903e-02,3.288672350791717325e-02,1.532858880000000090e-01,-1.532858880000000090e-01,9.503725056000000393e+00
1.691117388043538944e+18,7.308160779537149418e-03,8.526187576126675188e-03,2.679658952496954960e-02,1.532858880000000090e-01,-1.532858880000000090e-01,9.657010944000001373e+00
1.691117388053539072e+18,1.218026796589524903e-03,1.583434835566382287e-02,2.923264311814859767e-02,3.065717760000000180e-01,-1.532858880000000090e-01,9.657010944000001373e+00
1.691117388063538944e+18,-1.218026796589524903e-03,7.308160779537149418e-03,2.801461632155907364e-02,4.598576639999999993e-01,-1.532858880000000090e-01,9.657010944000001373e+00
1.691117388073539072e+18,-2.436053593179049806e-03,9.744214372716199224e-03,3.897685749086479690e-02,1.532858880000000090e-01,0.000000000000000000e+00,9.657010944000001373e+00
1.691117388083538944e+18,2.436053593179049806e-03,4.872107186358099612e-03,3.775883069427527633e-02,3.065717760000000180e-01,0.000000000000000000e+00,9.657010944000001373e+00
1.691117388093539072e+18,1.218026796589524903e-03,8.526187576126675188e-03,2.923264311814859767e-02,1.532858880000000090e-01,-1.532858880000000090e-01,9.657010944000001373e+00
1.691117388103538944e+18,6.090133982947624515e-03,1.218026796589524903e-02,3.532277710109622132e-02,7.664294400000000174e-01,-3.065717760000000180e-01,9.657010944000001373e+00
1.691117388113539072e+18,1.218026796589524903e-03,1.096224116930572499e-02,3.166869671132764574e-02,1.532858880000000090e-01,-1.532858880000000090e-01,9.503725056000000393e+00
1.691117388123539200e+18,-1.218026796589524903e-03,1.096224116930572499e-02,3.166869671132764574e-02,3.065717760000000180e-01,0.000000000000000000e+00,9.503725056000000393e+00
1.691117388133539072e+18,-3.654080389768574709e-03,1.218026796589524903e-03,2.923264311814859767e-02,1.532858880000000090e-01,-1.532858880000000090e-01,9.503725056000000393e+00
1.691117388143539200e+18,8.526187576126675188e-03,8.526187576126675188e-03,3.410475030450670075e-02,4.598576639999999993e-01,-1.532858880000000090e-01,9.657010944000001373e+00
1.691117388153539072e+18,0.000000000000000000e+00,1.339829476248477480e-02,2.314250913520097402e-02,3.065717760000000180e-01,-1.532858880000000090e-01,9.503725056000000393e+00
1.691117388163539200e+18,0.000000000000000000e+00,9.744214372716199224e-03,3.654080389768574882e-02,1.532858880000000090e-01,-1.532858880000000090e-01,9.657010944000001373e+00
1.691117388173539072e+18,-1.218026796589524903e-03,1.339829476248477480e-02,3.045066991473812518e-02,4.598576639999999993e-01,-1.532858880000000090e-01,9.657010944000001373e+00
1.691117388183539200e+18,2.436053593179049806e-03,1.705237515225335038e-02,2.436053593179049806e-02,-1.532858880000000090e-01,0.000000000000000000e+00,9.503725056000000393e+00
1.691117388193539072e+18,-1.218026796589524903e-03,1.218026796589524903e-02,2.801461632155907364e-02,3.065717760000000180e-01,-1.532858880000000090e-01,9.657010944000001373e+00
1.691117388203539200e+18,-9.744214372716199224e-03,8.526187576126675188e-03,3.166869671132764574e-02,1.532858880000000090e-01,-1.532858880000000090e-01,9.503725056000000393e+00
1.691117388213539072e+18,7.308160779537149418e-03,7.308160779537149418e-03,3.166869671132764574e-02,3.065717760000000180e-01,-1.532858880000000090e-01,9.657010944000001373e+00
1.691117388223539200e+18,-6.090133982947624515e-03,1.339829476248477480e-02,3.166869671132764574e-02,0.000000000000000000e+00,-3.065717760000000180e-01,9.503725056000000393e+00
1.691117388233539072e+18,8.526187576126675188e-03,1.583434835566382287e-02,3.288672350791717325e-02,3.065717760000000180e-01,-1.532858880000000090e-01,9.657010944000001373e+00
1.691117388243539200e+18,-3.654080389768574709e-03,6.090133982947624515e-03,3.410475030450670075e-02,1.532858880000000090e-01,-3.065717760000000180e-01,9.503725056000000393e+00
1.691117388253539072e+18,0.000000000000000000e+00,1.339829476248477480e-02,2.923264311814859767e-02,4.598576639999999993e-01,-1.532858880000000090e-01,9.657010944000001373e+00
1.691117388263539200e+18,1.218026796589524903e-03,9.744214372716199224e-03,2.801461632155907364e-02,1.532858880000000090e-01,-1.532858880000000090e-01,9.503725056000000393e+00
1.691117388273539072e+18,-3.654080389768574709e-03,3.654080389768574709e-03,3.532277710109622132e-02,3.065717760000000180e-01,-1.532858880000000090e-01,9.503725056000000393e+00
1.691117388283538944e+18,8.526187576126675188e-03,1.461632155907429884e-02,3.045066991473812518e-02,3.065717760000000180e-01,-3.065717760000000180e-01,9.350439168000001189e+00
1.691117388293539072e+18,1.218026796589524903e-03,1.583434835566382287e-02,2.679658952496954960e-02,4.598576639999999993e-01,0.000000000000000000e+00,9.503725056000000393e+00
1.691117388303538944e+18,1.218026796589524903e-03,1.583434835566382287e-02,3.288672350791717325e-02,0.000000000000000000e+00,-1.532858880000000090e-01,9.657010944000001373e+00
1.691117388313539072e+18,1.218026796589524903e-03,1.096224116930572499e-02,3.166869671132764574e-02,3.065717760000000180e-01,0.000000000000000000e+00,9.657010944000001373e+00
1.691117388323538944e+18,-6.090133982947624515e-03,1.461632155907429884e-02,2.314250913520097402e-02,1.532858880000000090e-01,-1.532858880000000090e-01,9.657010944000001373e+00
1.691117388333539072e+18,0.000000000000000000e+00,1.583434835566382287e-02,4.019488428745432440e-02,-1.532858880000000090e-01,-1.532858880000000090e-01,9.657010944000001373e+00
1.691117388343538944e+18,8.526187576126675188e-03,6.090133982947624515e-03,4.141291108404385191e-02,1.532858880000000090e-01,-1.532858880000000090e-01,9.657010944000001373e+00
1.691117388353539072e+18,-2.436053593179049806e-03,8.526187576126675188e-03,3.654080389768574882e-02,3.065717760000000180e-01,0.000000000000000000e+00,9.657010944000001373e+00
1.691117388363538944e+18,3.654080389768574709e-03,7.308160779537149418e-03,3.166869671132764574e-02,3.065717760000000180e-01,0.000000000000000000e+00,9.657010944000001373e+00
1.691117388373539328e+18,4.872107186358099612e-03,8.526187576126675188e-03,3.166869671132764574e-02,1.532858880000000090e-01,-1.532858880000000090e-01,9.657010944000001373e+00
1.691117388383539200e+18,0.000000000000000000e+00,9.744214372716199224e-03,2.679658952496954960e-02,1.532858880000000090e-01,-3.065717760000000180e-01,9.503725056000000393e+00
1.691117388393539072e+18,1.218026796589524903e-03,4.872107186358099612e-03,3.410475030450670075e-02,3.065717760000000180e-01,-1.532858880000000090e-01,9.657010944000001373e+00
1.691117388403539200e+18,-8.526187576126675188e-03,8.526187576126675188e-03,2.679658952496954960e-02,1.532858880000000090e-01,-1.532858880000000090e-01,9.657010944000001373e+00
1.691117388413539072e+18,3.654080389768574709e-03,9.744214372716199224e-03,4.019488428745432440e-02,1.532858880000000090e-01,-1.532858880000000090e-01,9.503725056000000393e+00
1.691117388423539200e+18,0.000000000000000000e+00,1.096224116930572499e-02,3.045066991473812518e-02,1.532858880000000090e-01,-1.532858880000000090e-01,9.503725056000000393e+00
1.691117388433539072e+18,3.654080389768574709e-03,1.218026796589524903e-02,3.532277710109622132e-02,1.532858880000000090e-01,-1.532858880000000090e-01,9.503725056000000393e+00
1.691117388443539200e+18,3.654080389768574709e-03,8.526187576126675188e-03,3.166869671132764574e-02,0.000000000000000000e+00,-1.532858880000000090e-01,9.810296832000000578e+00
1.691117388453539072e+18,2.436053593179049806e-03,1.461632155907429884e-02,2.436053593179049806e-02,1.532858880000000090e-01,-1.532858880000000090e-01,9.503725056000000393e+00
1.691117388463539200e+18,-2.436053593179049806e-03,1.339829476248477480e-02,3.166869671132764574e-02,3.065717760000000180e-01,-1.532858880000000090e-01,9.503725056000000393e+00
1.691117388473539072e+18,9.744214372716199224e-03,1.583434835566382287e-02,2.557856272838002556e-02,0.000000000000000000e+00,0.000000000000000000e+00,9.503725056000000393e+00
1.691117388483539200e+18,1.218026796589524903e-03,8.526187576126675188e-03,2.436053593179049806e-02,4.598576639999999993e-01,0.000000000000000000e+00,9.350439168000001189e+00
1.691117388493539072e+18,-2.436053593179049806e-03,1.339829476248477480e-02,3.045066991473812518e-02,-1.532858880000000090e-01,-1.532858880000000090e-01,9.503725056000000393e+00
1.691117388503539200e+18,6.090133982947624515e-03,1.339829476248477480e-02,2.557856272838002556e-02,3.065717760000000180e-01,-3.065717760000000180e-01,9.503725056000000393e+00
1.691117388513539072e+18,-1.218026796589524903e-02,7.308160779537149418e-03,3.654080389768574882e-02,1.532858880000000090e-01,-1.532858880000000090e-01,9.657010944000001373e+00
1.691117388523538944e+18,2.436053593179049806e-03,3.654080389768574709e-03,2.557856272838002556e-02,1.532858880000000090e-01,-1.532858880000000090e-01,9.503725056000000393e+00
1.691117388533539072e+18,-2.436053593179049806e-03,3.654080389768574709e-03,3.045066991473812518e-02,0.000000000000000000e+00,-1.532858880000000090e-01,9.503725056000000393e+00
1.691117388543538944e+18,1.218026796589524903e-03,6.090133982947624515e-03,3.532277710109622132e-02,1.532858880000000090e-01,0.000000000000000000e+00,9.503725056000000393e+00
1.691117388553539072e+18,1.218026796589524903e-03,1.218026796589524903e-02,2.801461632155907364e-02,3.065717760000000180e-01,-1.532858880000000090e-01,9.503725056000000393e+00
1.691117388563538944e+18,1.218026796589524903e-03,1.096224116930572499e-02,2.923264311814859767e-02,3.065717760000000180e-01,-1.532858880000000090e-01,9.657010944000001373e+00
1.691117388573539072e+18,7.308160779537149418e-03,9.744214372716199224e-03,3.166869671132764574e-02,3.065717760000000180e-01,0.000000000000000000e+00,9.503725056000000393e+00
1.691117388583538944e+18,-4.872107186358099612e-03,1.096224116930572499e-02,2.679658952496954960e-02,4.598576639999999993e-01,-1.532858880000000090e-01,9.657010944000001373e+00
1.691117388593539072e+18,6.090133982947624515e-03,9.744214372716199224e-03,3.532277710109622132e-02,3.065717760000000180e-01,-3.065717760000000180e-01,9.503725056000000393e+00
1.691117388603538944e+18,8.526187576126675188e-03,9.744214372716199224e-03,2.436053593179049806e-02,0.000000000000000000e+00,-1.532858880000000090e-01,9.503725056000000393e+00
1.691117388613539072e+18,8.526187576126675188e-03,1.339829476248477480e-02,3.045066991473812518e-02,0.000000000000000000e+00,-1.532858880000000090e-01,9.503725056000000393e+00
1.691117388623539200e+18,2.436053593179049806e-03,8.526187576126675188e-03,2.192448233861144999e-02,3.065717760000000180e-01,-1.532858880000000090e-01,9.503725056000000393e+00
1.691117388633539072e+18,1.218026796589524903e-03,6.090133982947624515e-03,3.288672350791717325e-02,1.532858880000000090e-01,-1.532858880000000090e-01,9.657010944000001373e+00
1.691117388643539200e+18,3.654080389768574709e-03,1.583434835566382287e-02,3.166869671132764574e-02,-1.532858880000000090e-01,-1.532858880000000090e-01,9.503725056000000393e+00
1.691117388653539072e+18,3.654080389768574709e-03,1.218026796589524903e-02,3.654080389768574882e-02,1.532858880000000090e-01,-1.532858880000000090e-01,9.657010944000001373e+00
1.691117388663539200e+18,0.000000000000000000e+00,1.096224116930572499e-02,3.166869671132764574e-02,1.532858880000000090e-01,-1.532858880000000090e-01,9.503725056000000393e+00
1.691117388673539072e+18,4.872107186358099612e-03,4.872107186358099612e-03,3.410475030450670075e-02,3.065717760000000180e-01,-1.532858880000000090e-01,9.657010944000001373e+00
1.691117388683539200e+18,-6.090133982947624515e-03,7.308160779537149418e-03,2.801461632155907364e-02,1.532858880000000090e-01,-3.065717760000000180e-01,9.503725056000000393e+00
1.691117388693539072e+18,3.654080389768574709e-03,1.096224116930572499e-02,3.288672350791717325e-02,3.065717760000000180e-01,-1.532858880000000090e-01,9.503725056000000393e+00
1.691117388703539200e+18,2.436053593179049806e-03,7.308160779537149418e-03,2.314250913520097402e-02,4.598576639999999993e-01,-1.532858880000000090e-01,9.350439168000001189e+00
1.691117388713539072e+18,1.218026796589524903e-03,8.526187576126675188e-03,3.166869671132764574e-02,0.000000000000000000e+00,-1.532858880000000090e-01,9.657010944000001373e+00
1.691117388723539200e+18,2.436053593179049806e-03,1.218026796589524903e-02,3.166869671132764574e-02,4.598576639999999993e-01,-1.532858880000000090e-01,9.503725056000000393e+00
1.691117388733539072e+18,1.218026796589524903e-03,9.744214372716199224e-03,2.923264311814859767e-02,3.065717760000000180e-01,-1.532858880000000090e-01,9.657010944000001373e+00
1.691117388743539200e+18,-1.218026796589524903e-03,8.526187576126675188e-03,3.166869671132764574e-02,1.532858880000000090e-01,-1.532858880000000090e-01,9.503725056000000393e+00
1.691117388753539072e+18,-6.090133982947624515e-03,1.339829476248477480e-02,2.192448233861144999e-02,3.065717760000000180e-01,-1.532858880000000090e-01,9.503725056000000393e+00
1.691117388763539200e+18,-9.744214372716199224e-03,9.744214372716199224e-03,2.436053593179049806e-02,3.065717760000000180e-01,0.000000000000000000e+00,9.503725056000000393e+00
1.691117388773539072e+18,0.000000000000000000e+00,0.000000000000000000e+00,4.019488428745432440e-02,4.598576639999999993e-01,-1.532858880000000090e-01,9.657010944000001373e+00
1.691117388783538944e+18,-7.308160779537149418e-03,1.461632155907429884e-02,3.045066991473812518e-02,1.532858880000000090e-01,-1.532858880000000090e-01,9.657010944000001373e+00
1.691117388793539072e+18,6.090133982947624515e-03,1.096224116930572499e-02,3.532277710109622132e-02,1.532858880000000090e-01,-1.532858880000000090e-01,9.350439168000001189e+00
1.691117388803538944e+18,9.744214372716199224e-03,4.872107186358099612e-03,4.263093788063337247e-02,1.532858880000000090e-01,-1.532858880000000090e-01,9.657010944000001373e+00
1.691117388813539072e+18,4.872107186358099612e-03,9.744214372716199224e-03,2.436053593179049806e-02,1.532858880000000090e-01,0.000000000000000000e+00,9.503725056000000393e+00
1.691117388823538944e+18,-3.654080389768574709e-03,1.096224116930572499e-02,3.654080389768574882e-02,0.000000000000000000e+00,-1.532858880000000090e-01,9.657010944000001373e+00
1.691117388833539072e+18,2.436053593179049806e-03,9.744214372716199224e-03,2.923264311814859767e-02,1.532858880000000090e-01,-3.065717760000000180e-01,9.657010944000001373e+00
1.691117388843538944e+18,0.000000000000000000e+00,7.308160779537149418e-03,3.045066991473812518e-02,1.532858880000000090e-01,-1.532858880000000090e-01,9.657010944000001373e+00
1.691117388853539072e+18,-2.436053593179049806e-03,1.948842874543239845e-02,3.045066991473812518e-02,4.598576639999999993e-01,-1.532858880000000090e-01,9.503725056000000393e+00
1.691117388863538944e+18,-1.218026796589524903e-03,1.705237515225335038e-02,2.557856272838002556e-02,1.532858880000000090e-01,-1.532858880000000090e-01,9.503725056000000393e+00
1.691117388873539328e+18,8.526187576126675188e-03,9.744214372716199224e-03,2.192448233861144999e-02,4.598576639999999993e-01,-1.532858880000000090e-01,9.657010944000001373e+00
1.691117388883539200e+18,-3.654080389768574709e-03,9.744214372716199224e-03,3.045066991473812518e-02,4.598576639999999993e-01,-3.065717760000000180e-01,9.657010944000001373e+00
1.691117388893539072e+18,9.744214372716199224e-03,1.218026796589524903e-02,2.436053593179049806e-02,3.065717760000000180e-01,0.000000000000000000e+00,9.657010944000001373e+00
1.691117388903539200e+18,-2.436053593179049806e-03,2.801461632155907364e-02,2.192448233861144999e-02,1.532858880000000090e-01,-1.532858880000000090e-01,9.503725056000000393e+00
1.691117388913539072e+18,0.000000000000000000e+00,1.948842874543239845e-02,2.923264311814859767e-02,4.598576639999999993e-01,-1.532858880000000090e-01,9.657010944000001373e+00
1.691117388923539200e+18,1.218026796589524903e-03,2.192448233861144999e-02,1.705237515225335038e-02,1.532858880000000090e-01,-1.532858880000000090e-01,9.503725056000000393e+00
1.691117388933539072e+18,-6.090133982947624515e-03,2.070645554202192595e-02,2.070645554202192595e-02,0.000000000000000000e+00,0.000000000000000000e+00,9.810296832000000578e+00
1.691117388943539200e+18,1.218026796589524903e-03,1.705237515225335038e-02,3.166869671132764574e-02,6.131435520000000361e-01,-1.532858880000000090e-01,9.657010944000001373e+00
1.691117388953539072e+18,-8.526187576126675188e-03,2.801461632155907364e-02,2.557856272838002556e-02,7.664294400000000174e-01,-1.532858880000000090e-01,9.350439168000001189e+00
1.691117388963539200e+18,3.654080389768574709e-03,2.314250913520097402e-02,3.410475030450670075e-02,7.664294400000000174e-01,-3.065717760000000180e-01,9.503725056000000393e+00
1.691117388973539072e+18,0.000000000000000000e+00,1.583434835566382287e-02,3.045066991473812518e-02,9.197153279999999986e-01,0.000000000000000000e+00,9.810296832000000578e+00
1.691117388983539200e+18,0.000000000000000000e+00,1.827040194884287441e-02,3.775883069427527633e-02,1.379572992000000164e+00,-1.532858880000000090e-01,9.657010944000001373e+00
1.691117388993539072e+18,-1.218026796589524903e-02,2.557856272838002556e-02,3.897685749086479690e-02,1.379572992000000164e+00,0.000000000000000000e+00,9.350439168000001189e+00
1.691117389003539200e+18,-1.218026796589524903e-03,1.461632155907429884e-02,4.993909866017052362e-02,7.664294400000000174e-01,0.000000000000000000e+00,9.503725056000000393e+00
1.691117389013539072e+18,-9.744214372716199224e-03,1.948842874543239845e-02,5.237515225334957170e-02,4.598576639999999993e-01,-1.532858880000000090e-01,9.657010944000001373e+00
1.691117389023538944e+18,9.744214372716199224e-03,1.339829476248477480e-02,4.993909866017052362e-02,6.131435520000000361e-01,-3.065717760000000180e-01,9.657010944000001373e+00
1.691117389033539072e+18,-1.096224116930572499e-02,1.218026796589524903e-02,5.359317904993909920e-02,7.664294400000000174e-01,-3.065717760000000180e-01,9.503725056000000393e+00
1.691117389043538944e+18,1.096224116930572499e-02,4.872107186358099612e-03,4.628501827040194805e-02,9.197153279999999986e-01,-1.532858880000000090e-01,9.657010944000001373e+00
1.691117389053539072e+18,7.308160779537149418e-03,1.583434835566382287e-02,4.506699147381242054e-02,1.073001215999999980e+00,-3.065717760000000180e-01,9.503725056000000393e+00
1.691117389063538944e+18,-3.654080389768574709e-03,1.218026796589524903e-02,2.801461632155907364e-02,4.598576639999999993e-01,-4.598576639999999993e-01,9.350439168000001189e+00
1.691117389073539072e+18,8.526187576126675188e-03,-1.218026796589524903e-03,2.314250913520097402e-02,6.131435520000000361e-01,-6.131435520000000361e-01,9.503725056000000393e+00
1.691117389083538944e+18,3.654080389768574709e-03,-2.436053593179049806e-03,1.096224116930572499e-02,1.073001215999999980e+00,-3.065717760000000180e-01,9.657010944000001373e+00
1.691117389093539072e+18,8.526187576126675188e-03,1.218026796589524903e-03,-1.339829476248477480e-02,1.532858880000000090e-01,-4.598576639999999993e-01,9.503725056000000393e+00
1.691117389103538944e+18,1.096224116930572499e-02,6.090133982947624515e-03,-1.339829476248477480e-02,1.073001215999999980e+00,-4.598576639999999993e-01,9.503725056000000393e+00
1.691117389113539072e+18,3.654080389768574709e-03,-3.654080389768574709e-03,-4.019488428745432440e-02,6.131435520000000361e-01,-4.598576639999999993e-01,9.503725056000000393e+00
1.691117389123539200e+18,-1.218026796589524903e-03,7.308160779537149418e-03,-7.064555420219244264e-02,9.197153279999999986e-01,-3.065717760000000180e-01,9.810296832000000578e+00
1.691117389133539072e+18,2.436053593179049806e-03,7.308160779537149418e-03,-9.013398294762484109e-02,3.065717760000000180e-01,-3.065717760000000180e-01,9.503725056000000393e+00
1.691117389143539200e+18,2.436053593179049806e-03,-1.218026796589524903e-03,-9.500609013398295111e-02,-7.664294400000000174e-01,-3.065717760000000180e-01,9.350439168000001189e+00
1.691117389153539072e+18,-4.872107186358099612e-03,6.090133982947624515e-03,-1.144945188794153496e-01,-3.065717760000000180e-01,-1.532858880000000090e-01,9.963582719999999782e+00
1.691117389163539200e+18,-4.872107186358099612e-03,6.090133982947624515e-03,-1.181485992691839182e-01,9.197153279999999986e-01,-1.532858880000000090e-01,9.043867392000001004e+00
1.691117389173539072e+18,-1.218026796589524903e-02,2.436053593179049806e-03,-1.242387332521315418e-01,-3.065717760000000180e-01,-3.065717760000000180e-01,9.963582719999999782e+00
1.691117389183539200e+18,0.000000000000000000e+00,-4.872107186358099612e-03,-1.132764920828258220e-01,3.065717760000000180e-01,-3.065717760000000180e-01,9.810296832000000578e+00
1.691117389193539072e+18,-1.705237515225335038e-02,-1.218026796589524903e-03,-1.108404384896467670e-01,3.065717760000000180e-01,0.000000000000000000e+00,9.350439168000001189e+00
1.691117389203539200e+18,-7.308160779537149418e-03,3.654080389768574709e-03,-1.035322777101096159e-01,-1.532858880000000090e-01,1.532858880000000090e-01,9.503725056000000393e+00
1.691117389213539072e+18,-2.192448233861144999e-02,-1.218026796589524903e-03,-8.038976857490864880e-02,1.532858880000000090e-01,0.000000000000000000e+00,9.810296832000000578e+00
1.691117389223539200e+18,-3.654080389768574709e-03,1.218026796589524903e-03,-5.968331303288672285e-02,0.000000000000000000e+00,-1.532858880000000090e-01,9.810296832000000578e+00
1.691117389233539072e+18,-7.308160779537149418e-03,-3.654080389768574709e-03,-3.532277710109622132e-02,3.065717760000000180e-01,-1.532858880000000090e-01,9.503725056000000393e+00
1.691117389243539200e+18,-4.872107186358099612e-03,-1.705237515225335038e-02,-1.461632155907429884e-02,-9.197153279999999986e-01,-1.532858880000000090e-01,1.011686860800000076e+01
1.691117389253539072e+18,0.000000000000000000e+00,-9.744214372716199224e-03,8.526187576126675188e-03,-9.197153279999999986e-01,-3.065717760000000180e-01,9.657010944000001373e+00
1.691117389263539200e+18,4.872107186358099612e-03,9.744214372716199224e-03,1.583434835566382287e-02,-7.664294400000000174e-01,-3.065717760000000180e-01,9.503725056000000393e+00
1.691117389273539072e+18,8.526187576126675188e-03,-2.436053593179049806e-03,3.775883069427527633e-02,-1.992716544000000090e+00,0.000000000000000000e+00,9.043867392000001004e+00
1.691117389283538944e+18,0.000000000000000000e+00,-8.526187576126675188e-03,5.602923264311814727e-02,-7.664294400000000174e-01,0.000000000000000000e+00,9.350439168000001189e+00
1.691117389293539072e+18,1.218026796589524903e-02,4.872107186358099612e-03,5.481120584652862671e-02,-3.065717760000000180e-01,1.532858880000000090e-01,9.657010944000001373e+00
1.691117389303538944e+18,1.339829476248477480e-02,2.436053593179049806e-03,5.968331303288672285e-02,-4.598576639999999993e-01,1.532858880000000090e-01,9.810296832000000578e+00
1.691117389313539072e+18,1.218026796589524903e-02,3.654080389768574709e-03,9.135200974421436859e-02,-3.065717760000000180e-01,3.065717760000000180e-01,9.503725056000000393e+00
1.691117389323538944e+18,1.705237515225335038e-02,6.090133982947624515e-03,9.378806333739342360e-02,-3.065717760000000180e-01,-1.532858880000000090e-01,9.810296832000000578e+00
1.691117389333539072e+18,7.308160779537149418e-03,1.705237515225335038e-02,1.035322777101096159e-01,-7.664294400000000174e-01,0.000000000000000000e+00,9.350439168000001189e+00
1.691117389343538944e+18,6.090133982947624515e-03,-1.339829476248477480e-02,1.108404384896467670e-01,-1.992716544000000090e+00,0.000000000000000000e+00,9.503725056000000393e+00
1.691117389353539072e+18,1.218026796589524903e-03,1.339829476248477480e-02,1.242387332521315418e-01,0.000000000000000000e+00,0.000000000000000000e+00,9.657010944000001373e+00
1.691117389363538944e+18,3.654080389768574709e-03,2.679658952496954960e-02,1.291108404384896380e-01,-1.532858880000000090e-01,1.532858880000000090e-01,9.657010944000001373e+00
1.691117389373539328e+18,-2.436053593179049806e-03,1.096224116930572499e-02,1.315468940316686930e-01,-1.992716544000000090e+00,1.532858880000000090e-01,9.810296832000000578e+00
1.691117389383539200e+18,2.436053593179049806e-03,1.827040194884287441e-02,1.376370280146163305e-01,-4.598576639999999993e-01,-1.532858880000000090e-01,9.657010944000001373e+00
1.691117389393539072e+18,-1.218026796589524903e-03,5.359317904993909920e-02,1.376370280146163305e-01,1.379572992000000164e+00,-3.065717760000000180e-01,9.810296832000000578e+00
1.691117389403539200e+18,2.436053593179049806e-03,2.192448233861144999e-02,1.218026796589525007e-01,-9.197153279999999986e-01,-4.598576639999999993e-01,9.810296832000000578e+00
1.691117389413539072e+18,-1.705237515225335038e-02,2.679658952496954960e-02,1.254567600487210832e-01,-7.664294400000000174e-01,3.065717760000000180e-01,9.810296832000000578e+00
1.691117389423539200e+18,-4.872107186358099612e-03,3.897685749086479690e-02,1.084043848964677259e-01,6.131435520000000361e-01,-3.065717760000000180e-01,9.350439168000001189e+00
1.691117389433539072e+18,-1.705237515225335038e-02,4.019488428745432440e-02,1.059683313032886709e-01,4.598576639999999993e-01,0.000000000000000000e+00,9.810296832000000578e+00
1.691117389443539200e+18,-1.218026796589524903e-03,5.359317904993909920e-02,9.866017052375151974e-02,2.299288320000000052e+00,-3.065717760000000180e-01,9.810296832000000578e+00
1.691117389453539072e+18,-3.654080389768574709e-03,4.263093788063337247e-02,8.769792935444579995e-02,4.598576639999999993e-01,-1.532858880000000090e-01,9.350439168000001189e+00
1.691117389463539200e+18,-1.096224116930572499e-02,5.237515225334957170e-02,8.404384896467721744e-02,1.686144768000000127e+00,-4.598576639999999993e-01,9.503725056000000393e+00
1.691117389473539072e+18,3.654080389768574709e-03,5.115712545676005113e-02,8.282582216808770381e-02,3.065717760000000180e-01,-3.065717760000000180e-01,9.657010944000001373e+00
1.691117389483539200e+18,0.000000000000000000e+00,3.166869671132764574e-02,6.942752740560292901e-02,7.664294400000000174e-01,-3.065717760000000180e-01,9.503725056000000393e+00
1.691117389493539072e+18,-1.339829476248477480e-02,2.192448233861144999e-02,6.699147381242387400e-02,9.197153279999999986e-01,0.000000000000000000e+00,9.503725056000000393e+00
1.691117389503539200e+18,2.436053593179049806e-03,2.679658952496954960e-02,7.064555420219244264e-02,6.131435520000000361e-01,-1.532858880000000090e-01,9.503725056000000393e+00
1.691117389513539072e+18,-2.436053593179049806e-03,2.436053593179049806e-03,7.308160779537149765e-02,4.598576639999999993e-01,-3.065717760000000180e-01,9.503725056000000393e+00
1.691117389523538944e+18,0.000000000000000000e+00,1.096224116930572499e-02,7.429963459196102515e-02,6.131435520000000361e-01,0.000000000000000000e+00,9.503725056000000393e+00
1.691117389533539072e+18,-4.872107186358099612e-03,2.436053593179049806e-03,6.577344701583434650e-02,1.073001215999999980e+00,-3.065717760000000180e-01,9.350439168000001189e+00
1.691117389543538944e+18,-1.583434835566382287e-02,-9.744214372716199224e-03,7.064555420219244264e-02,7.664294400000000174e-01,-1.532858880000000090e-01,9.350439168000001189e+00
1.691117389553539072e+18,8.526187576126675188e-03,-1.583434835566382287e-02,6.455542021924481899e-02,9.197153279999999986e-01,-3.065717760000000180e-01,9.657010944000001373e+00
1.691117389563538944e+18,-2.436053593179049806e-03,-1.096224116930572499e-02,6.211936662606577092e-02,1.073001215999999980e+00,-3.065717760000000180e-01,9.657010944000001373e+00
1.691117389573539072e+18,1.218026796589524903e-03,-8.526187576126675188e-03,5.115712545676005113e-02,1.379572992000000164e+00,-3.065717760000000180e-01,9.503725056000000393e+00
1.691117389583538944e+18,6.090133982947624515e-03,-1.218026796589524903e-02,6.333739342265529149e-02,1.379572992000000164e+00,-3.065717760000000180e-01,9.657010944000001373e+00
1.691117389593539072e+18,0.000000000000000000e+00,-1.339829476248477480e-02,5.968331303288672285e-02,1.686144768000000127e+00,0.000000000000000000e+00,9.963582719999999782e+00
1.691117389603538944e+18,1.339829476248477480e-02,-1.218026796589524903e-03,5.846528623629719534e-02,1.532858880000000035e+00,-1.532858880000000090e-01,9.963582719999999782e+00
1.691117389613539072e+18,4.872107186358099612e-03,4.872107186358099612e-03,5.846528623629719534e-02,1.839430655999999997e+00,-1.532858880000000090e-01,9.963582719999999782e+00
1.691117389623539200e+18,1.827040194884287441e-02,1.096224116930572499e-02,5.968331303288672285e-02,1.532858880000000035e+00,-1.532858880000000090e-01,9.503725056000000393e+00
1.691117389633539072e+18,7.308160779537149418e-03,1.583434835566382287e-02,6.090133982947625035e-02,9.197153279999999986e-01,1.532858880000000090e-01,9.657010944000001373e+00
1.691117389643539200e+18,3.654080389768574709e-03,2.436053593179049806e-02,7.673568818514006629e-02,1.532858880000000035e+00,0.000000000000000000e+00,9.810296832000000578e+00
1.691117389653539072e+18,4.872107186358099612e-03,2.923264311814859767e-02,8.404384896467721744e-02,1.073001215999999980e+00,3.065717760000000180e-01,9.657010944000001373e+00
1.691117389663539200e+18,4.872107186358099612e-03,1.827040194884287441e-02,1.181485992691839182e-01,3.065717760000000180e-01,3.065717760000000180e-01,9.810296832000000578e+00
1.691117389673539072e+18,-9.744214372716199224e-03,2.314250913520097402e-02,1.461632155907429953e-01,1.073001215999999980e+00,3.065717760000000180e-01,9.350439168000001189e+00
1.691117389683539200e+18,-7.308160779537149418e-03,3.410475030450670075e-02,1.729598051157125449e-01,1.379572992000000164e+00,4.598576639999999993e-01,9.503725056000000393e+00
1.691117389693539072e+18,-9.744214372716199224e-03,3.532277710109622132e-02,2.216808769792935341e-01,1.073001215999999980e+00,6.131435520000000361e-01,9.350439168000001189e+00
1.691117389703539200e+18,-7.308160779537149418e-03,2.923264311814859767e-02,2.570036540803897762e-01,3.065717760000000180e-01,7.664294400000000174e-01,9.503725056000000393e+00
1.691117389713539072e+18,-1.218026796589524903e-02,2.070645554202192595e-02,2.911084043848964908e-01,1.532858880000000035e+00,6.131435520000000361e-01,9.197153280000000208e+00
1.691117389723539200e+18,-2.070645554202192595e-02,1.583434835566382287e-02,3.227771010962240950e-01,3.065717760000000180e-01,4.598576639999999993e-01,9.810296832000000578e+00
1.691117389733539072e+18,-1.218026796589524903e-03,1.218026796589524903e-02,3.398294762484774800e-01,7.664294400000000174e-01,1.532858880000000090e-01,9.503725056000000393e+00
1.691117389743539200e+18,-2.436053593179049806e-03,1.218026796589524903e-02,3.629719853836784194e-01,3.065717760000000180e-01,0.000000000000000000e+00,9.657010944000001373e+00
1.691117389753539072e+18,-1.218026796589524903e-03,2.436053593179049806e-03,3.812423873325213042e-01,9.197153279999999986e-01,0.000000000000000000e+00,9.657010944000001373e+00
1.691117389763539200e+18,1.096224116930572499e-02,1.461632155907429884e-02,3.982947624847746892e-01,1.532858880000000035e+00,1.532858880000000090e-01,9.503725056000000393e+00
1.691117389773539072e+18,4.872107186358099612e-03,1.218026796589524903e-02,4.092570036540804090e-01,6.131435520000000361e-01,3.065717760000000180e-01,9.043867392000001004e+00
1.691117389783538944e+18,9.744214372716199224e-03,8.526187576126675188e-03,4.238733252131546836e-01,1.379572992000000164e+00,-3.065717760000000180e-01,9.963582719999999782e+00
1.691117389793539072e+18,1.339829476248477480e-02,1.948842874543239845e-02,4.238733252131546836e-01,1.379572992000000164e+00,0.000000000000000000e+00,9.503725056000000393e+00
1.691117389803538944e+18,1.096224116930572499e-02,1.218026796589524903e-02,4.238733252131546836e-01,1.379572992000000164e+00,-3.065717760000000180e-01,9.810296832000000578e+00
1.691117389813539072e+18,1.461632155907429884e-02,2.801461632155907364e-02,4.165651644336175186e-01,1.839430655999999997e+00,1.532858880000000090e-01,9.503725056000000393e+00
1.691117389823538944e+18,1.583434835566382287e-02,2.192448233861144999e-02,4.238733252131546836e-01,1.226287104000000072e+00,1.532858880000000090e-01,9.503725056000000393e+00
1.691117389833539072e+18,1.096224116930572499e-02,2.436053593179049806e-02,4.384896467722290136e-01,1.686144768000000127e+00,0.000000000000000000e+00,9.350439168000001189e+00
1.691117389843538944e+18,7.308160779537149418e-03,1.583434835566382287e-02,4.616321559074299530e-01,1.073001215999999980e+00,3.065717760000000180e-01,9.503725056000000393e+00
1.691117389853539072e+18,-3.654080389768574709e-03,2.801461632155907364e-02,4.579780755176613982e-01,1.379572992000000164e+00,0.000000000000000000e+00,9.503725056000000393e+00
1.691117389863538944e+18,9.744214372716199224e-03,2.801461632155907364e-02,4.579780755176613982e-01,1.226287104000000072e+00,1.532858880000000090e-01,9.657010944000001373e+00
1.691117389873539328e+18,3.654080389768574709e-03,2.436053593179049806e-02,4.470158343483556784e-01,7.664294400000000174e-01,1.532858880000000090e-01,9.810296832000000578e+00
1.691117389883539200e+18,-2.436053593179049806e-03,2.801461632155907364e-02,4.494518879415347334e-01,1.226287104000000072e+00,1.532858880000000090e-01,9.350439168000001189e+00
1.691117389893539072e+18,-7.308160779537149418e-03,3.166869671132764574e-02,4.531059683313032882e-01,1.226287104000000072e+00,0.000000000000000000e+00,9.503725056000000393e+00
1.691117389903539200e+18,0.000000000000000000e+00,2.070645554202192595e-02,4.494518879415347334e-01,1.073001215999999980e+00,-1.532858880000000090e-01,9.350439168000001189e+00
1.691117389913539072e+18,3.654080389768574709e-03,1.948842874543239845e-02,4.518879415347137884e-01,1.379572992000000164e+00,0.000000000000000000e+00,9.503725056000000393e+00
1.691117389923539200e+18,-1.583434835566382287e-02,8.526187576126675188e-03,4.665042630937880630e-01,1.226287104000000072e+00,0.000000000000000000e+00,9.503725056000000393e+00
1.691117389933539072e+18,0.000000000000000000e+00,9.744214372716199224e-03,4.543239951278927879e-01,9.197153279999999986e-01,-4.598576639999999993e-01,9.810296832000000578e+00
1.691117389943539200e+18,8.526187576126675188e-03,1.705237515225335038e-02,4.531059683313032882e-01,1.226287104000000072e+00,-4.598576639999999993e-01,9.503725056000000393e+00
1.691117389953539072e+18,1.096224116930572499e-02,8.526187576126675188e-03,4.445797807551766234e-01,9.197153279999999986e-01,-1.532858880000000090e-01,9.810296832000000578e+00
1.691117389963539200e+18,8.526187576126675188e-03,8.526187576126675188e-03,4.323995127892813484e-01,1.073001215999999980e+00,-1.532858880000000090e-01,9.810296832000000578e+00
1.691117389973539072e+18,1.583434835566382287e-02,1.339829476248477480e-02,4.275274056029232383e-01,1.379572992000000164e+00,-1.532858880000000090e-01,9.503725056000000393e+00
1.691117389983539200e+18,1.827040194884287441e-02,1.583434835566382287e-02,4.263093788063337386e-01,1.532858880000000035e+00,-1.532858880000000090e-01,9.503725056000000393e+00
1.691117389993539072e+18,2.679658952496954960e-02,8.526187576126675188e-03,4.177831912302070738e-01,1.379572992000000164e+00,-1.532858880000000090e-01,9.503725056000000393e+00
1.691117390003539200e+18,2.557856272838002556e-02,2.192448233861144999e-02,4.250913520097442388e-01,1.532858880000000035e+00,-3.065717760000000180e-01,9.503725056000000393e+00
1.691117390013539072e+18,1.583434835566382287e-02,8.526187576126675188e-03,4.031668696711327438e-01,9.197153279999999986e-01,-3.065717760000000180e-01,9.657010944000001373e+00
1.691117390023538944e+18,1.827040194884287441e-02,6.090133982947624515e-03,3.800243605359318044e-01,1.379572992000000164e+00,-1.532858880000000090e-01,9.810296832000000578e+00
1.691117390033539072e+18,7.308160779537149418e-03,2.436053593179049806e-03,3.751522533495736944e-01,7.664294400000000174e-01,3.065717760000000180e-01,9.963582719999999782e+00
1.691117390043538944e+18,1.827040194884287441e-02,-1.218026796589524903e-03,3.763702801461631942e-01,6.131435520000000361e-01,1.532858880000000090e-01,9.657010944000001373e+00
1.691117390053539072e+18,1.096224116930572499e-02,1.948842874543239845e-02,3.812423873325213042e-01,7.664294400000000174e-01,0.000000000000000000e+00,9.503725056000000393e+00
1.691117390063538944e+18,1.218026796589524903e-02,2.314250913520097402e-02,3.544457978075517546e-01,4.598576639999999993e-01,-4.598576639999999993e-01,9.657010944000001373e+00
1.691117390073539072e+18,-6.090133982947624515e-03,1.583434835566382287e-02,3.434835566382460348e-01,0.000000000000000000e+00,-6.131435520000000361e-01,9.503725056000000393e+00
1.691117390083538944e+18,-3.654080389768574709e-03,7.308160779537149418e-03,3.057247259439707654e-01,1.532858880000000035e+00,-4.598576639999999993e-01,9.657010944000001373e+00
1.691117390093539072e+18,-1.218026796589524903e-03,1.218026796589524903e-03,2.850182704019488256e-01,4.598576639999999993e-01,0.000000000000000000e+00,9.657010944000001373e+00
1.691117390103538944e+18,-2.436053593179049806e-03,6.090133982947624515e-03,2.643118148599269412e-01,-6.131435520000000361e-01,-1.532858880000000090e-01,9.963582719999999782e+00
1.691117390113539072e+18,-1.096224116930572499e-02,1.339829476248477480e-02,2.399512789281364189e-01,3.065717760000000180e-01,-6.131435520000000361e-01,9.810296832000000578e+00
1.691117390123539200e+18,-3.654080389768574709e-03,-3.654080389768574709e-03,1.985383678440925670e-01,1.226287104000000072e+00,-6.131435520000000361e-01,8.890581504000000024e+00
1.691117390133539072e+18,-4.872107186358099612e-03,-2.923264311814859767e-02,1.693057247259439624e-01,9.197153279999999986e-01,-4.598576639999999993e-01,9.503725056000000393e+00
1.691117390143539200e+18,7.308160779537149418e-03,-2.436053593179049806e-03,1.412911084043848853e-01,-4.598576639999999993e-01,-3.065717760000000180e-01,1.011686860800000076e+01
1.691117390153539072e+18,-1.218026796589524903e-02,1.339829476248477480e-02,1.157125456760048771e-01,0.000000000000000000e+00,-7.664294400000000174e-01,1.027015449599999997e+01
1.691117390163539200e+18,-1.096224116930572499e-02,2.557856272838002556e-02,7.673568818514006629e-02,7.664294400000000174e-01,-7.664294400000000174e-01,9.043867392000001004e+00
1.691117390173539072e+18,1.339829476248477480e-02,-7.308160779537149418e-03,2.801461632155907364e-02,4.598576639999999993e-01,-7.664294400000000174e-01,8.737295616000000820e+00
1.691117390183539200e+18,8.526187576126675188e-03,-1.827040194884287441e-02,3.654080389768574709e-03,-6.131435520000000361e-01,-4.598576639999999993e-01,9.657010944000001373e+00
1.691117390193539072e+18,1.827040194884287441e-02,-1.218026796589524903e-03,-3.410475030450670075e-02,3.065717760000000180e-01,-6.131435520000000361e-01,9.963582719999999782e+00
1.691117390203539200e+18,-2.436053593179049806e-03,2.679658952496954960e-02,-4.628501827040194805e-02,1.073001215999999980e+00,-4.598576639999999993e-01,9.350439168000001189e+00
1.691117390213539072e+18,8.526187576126675188e-03,1.218026796589524903e-02,-8.891595615103532746e-02,3.065717760000000180e-01,-7.664294400000000174e-01,9.350439168000001189e+00
1.691117390223539200e+18,8.526187576126675188e-03,-8.526187576126675188e-03,-1.023142509135201023e-01,1.532858880000000090e-01,-3.065717760000000180e-01,9.657010944000001373e+00
1.691117390233539072e+18,1.218026796589524903e-03,-1.218026796589524903e-02,-1.181485992691839182e-01,-3.065717760000000180e-01,-3.065717760000000180e-01,1.011686860800000076e+01
1.691117390243539200e+18,1.339829476248477480e-02,4.872107186358099612e-03,-1.218026796589525007e-01,-1.532858880000000090e-01,0.000000000000000000e+00,9.657010944000001373e+00
1.691117390253539072e+18,1.218026796589524903e-03,1.948842874543239845e-02,-1.230207064555420282e-01,-1.532858880000000090e-01,0.000000000000000000e+00,9.043867392000001004e+00
1.691117390263539200e+18,7.308160779537149418e-03,2.070645554202192595e-02,-1.193666260657734457e-01,0.000000000000000000e+00,-1.532858880000000090e-01,9.197153280000000208e+00
1.691117390273539072e+18,2.436053593179049806e-03,1.218026796589524903e-02,-9.987819732034104725e-02,3.065717760000000180e-01,0.000000000000000000e+00,9.810296832000000578e+00
1.691117390283538944e+18,-2.436053593179049806e-03,-1.705237515225335038e-02,-8.282582216808770381e-02,3.065717760000000180e-01,1.532858880000000090e-01,9.503725056000000393e+00
1.691117390293539072e+18,-2.436053593179049806e-03,-3.166869671132764574e-02,-6.699147381242387400e-02,4.598576639999999993e-01,0.000000000000000000e+00,9.503725056000000393e+00
1.691117390303538944e+18,3.654080389768574709e-03,-2.436053593179049806e-02,-5.724725943970767478e-02,-1.532858880000000090e-01,0.000000000000000000e+00,9.657010944000001373e+00
1.691117390313539072e+18,-1.096224116930572499e-02,-1.218026796589524903e-03,-3.166869671132764574e-02,1.532858880000000090e-01,0.000000000000000000e+00,9.810296832000000578e+00
1.691117390323538944e+18,4.872107186358099612e-03,-2.436053593179049806e-03,-2.923264311814859767e-02,4.598576639999999993e-01,1.532858880000000090e-01,9.503725056000000393e+00
1.691117390333539072e+18,-7.308160779537149418e-03,-9.744214372716199224e-03,4.872107186358099612e-03,1.532858880000000090e-01,0.000000000000000000e+00,9.350439168000001189e+00
1.691117390343538944e+18,-1.461632155907429884e-02,-1.827040194884287441e-02,7.308160779537149418e-03,-1.532858880000000090e-01,3.065717760000000180e-01,9.810296832000000578e+00
1.691117390353539072e+18,-6.090133982947624515e-03,-4.872107186358099612e-03,3.166869671132764574e-02,7.664294400000000174e-01,0.000000000000000000e+00,9.657010944000001373e+00
1.691117390363538944e+18,-8.526187576126675188e-03,-2.436053593179049806e-03,3.532277710109622132e-02,1.532858880000000090e-01,0.000000000000000000e+00,9.657010944000001373e+00
1.691117390373539328e+18,0.000000000000000000e+00,-7.308160779537149418e-03,5.115712545676005113e-02,3.065717760000000180e-01,-1.532858880000000090e-01,9.503725056000000393e+00
1.691117390383539200e+18,-4.872107186358099612e-03,-1.218026796589524903e-03,4.628501827040194805e-02,4.598576639999999993e-01,0.000000000000000000e+00,9.350439168000001189e+00
1.691117390393539072e+18,9.744214372716199224e-03,-8.526187576126675188e-03,5.359317904993909920e-02,-3.065717760000000180e-01,-3.065717760000000180e-01,9.810296832000000578e+00
1.691117390403539200e+18,4.872107186358099612e-03,1.705237515225335038e-02,5.115712545676005113e-02,0.000000000000000000e+00,0.000000000000000000e+00,1.011686860800000076e+01
1.691117390413539072e+18,4.872107186358099612e-03,2.192448233861144999e-02,6.333739342265529149e-02,7.664294400000000174e-01,1.532858880000000090e-01,9.350439168000001189e+00
1.691117390423539200e+18,-2.436053593179049806e-03,4.872107186358099612e-03,7.186358099878197014e-02,0.000000000000000000e+00,0.000000000000000000e+00,8.890581504000000024e+00
1.691117390433539072e+18,-3.654080389768574709e-03,-8.526187576126675188e-03,8.526187576126674494e-02,-9.197153279999999986e-01,-1.532858880000000090e-01,9.503725056000000393e+00
1.691117390443539200e+18,2.436053593179049806e-03,1.218026796589524903e-03,8.647990255785627245e-02,3.065717760000000180e-01,0.000000000000000000e+00,9.657010944000001373e+00
1.691117390453539072e+18,2.436053593179049806e-03,3.654080389768574709e-03,8.769792935444579995e-02,1.532858880000000090e-01,-1.532858880000000090e-01,9.810296832000000578e+00
1.691117390463539200e+18,8.526187576126675188e-03,1.218026796589524903e-02,9.744214372716199224e-02,-3.065717760000000180e-01,-1.532858880000000090e-01,9.503725056000000393e+00
1.691117390473539072e+18,-1.096224116930572499e-02,8.526187576126675188e-03,8.769792935444579995e-02,1.532858880000000090e-01,-3.065717760000000180e-01,9.503725056000000393e+00
1.691117390483539200e+18,7.308160779537149418e-03,2.436053593179049806e-03,8.769792935444579995e-02,1.532858880000000090e-01,-1.532858880000000090e-01,9.810296832000000578e+00
1.691117390493539072e+18,6.090133982947624515e-03,9.744214372716199224e-03,7.429963459196102515e-02,3.065717760000000180e-01,-1.532858880000000090e-01,9.657010944000001373e+00
1.691117390503539200e+18,7.308160779537149418e-03,1.461632155907429884e-02,7.186358099878197014e-02,1.532858880000000090e-01,-4.598576639999999993e-01,9.350439168000001189e+00
1.691117390513539072e+18,0.000000000000000000e+00,-3.654080389768574709e-03,6.820950060901340151e-02,1.532858880000000090e-01,-1.532858880000000090e-01,9.657010944000001373e+00
1.691117390523538944e+18,0.000000000000000000e+00,-2.314250913520097402e-02,6.577344701583434650e-02,1.532858880000000090e-01,0.000000000000000000e+00,9.963582719999999782e+00
1.691117390533539072e+18,-1.096224116930572499e-02,-1.705237515225335038e-02,4.750304506699147555e-02,1.379572992000000164e+00,0.000000000000000000e+00,9.963582719999999782e+00
1.691117390543538944e+18,-3.654080389768574709e-03,-1.218026796589524903e-03,4.628501827040194805e-02,-1.532858880000000090e-01,-3.065717760000000180e-01,9.810296832000000578e+00
1.691117390553539072e+18,-1.218026796589524903e-02,1.461632155907429884e-02,3.775883069427527633e-02,3.065717760000000180e-01,-1.532858880000000090e-01,9.657010944000001373e+00
1.691117390563538944e+18,-7.308160779537149418e-03,2.801461632155907364e-02,3.166869671132764574e-02,6.131435520000000361e-01,-3.065717760000000180e-01,9.503725056000000393e+00
1.691117390573539072e+18,-1.096224116930572499e-02,1.461632155907429884e-02,2.070645554202192595e-02,-1.532858880000000090e-01,-1.532858880000000090e-01,9.503725056000000393e+00
1.691117390583538944e+18,-1.705237515225335038e-02,-1.218026796589524903e-02,2.314250913520097402e-02,3.065717760000000180e-01,-1.532858880000000090e-01,9.503725056000000393e+00
1.691117390593539072e+18,-2.557856272838002556e-02,-1.218026796589524903e-03,1.827040194884287441e-02,7.664294400000000174e-01,3.065717760000000180e-01,9.657010944000001373e+00
1.691117390603538944e+18,-3.166869671132764574e-02,8.526187576126675188e-03,2.314250913520097402e-02,0.000000000000000000e+00,-1.532858880000000090e-01,9.657010944000001373e+00
1.691117390613539072e+18,-1.461632155907429884e-02,1.705237515225335038e-02,2.679658952496954960e-02,1.532858880000000090e-01,-3.065717760000000180e-01,9.503725056000000393e+00
1.691117390623539200e+18,-2.557856272838002556e-02,1.218026796589524903e-03,1.339829476248477480e-02,3.065717760000000180e-01,-4.598576639999999993e-01,9.197153280000000208e+00
1.691117390633539072e+18,-8.526187576126675188e-03,-1.705237515225335038e-02,1.339829476248477480e-02,-1.532858880000000090e-01,-3.065717760000000180e-01,9.350439168000001189e+00
1.691117390643539200e+18,-1.461632155907429884e-02,-1.827040194884287441e-02,9.744214372716199224e-03,1.532858880000000090e-01,-1.532858880000000090e-01,9.197153280000000208e+00
1.691117390653539072e+18,6.090133982947624515e-03,2.436053593179049806e-03,6.090133982947624515e-03,4.598576639999999993e-01,-3.065717760000000180e-01,9.657010944000001373e+00
1.691117390663539200e+18,1.218026796589524903e-03,9.744214372716199224e-03,1.339829476248477480e-02,-1.532858880000000090e-01,-3.065717760000000180e-01,9.503725056000000393e+00
1.691117390673539072e+18,4.872107186358099612e-03,4.872107186358099612e-03,0.000000000000000000e+00,-6.131435520000000361e-01,-6.131435520000000361e-01,9.503725056000000393e+00
1.691117390683539200e+18,1.218026796589524903e-02,-1.583434835566382287e-02,-6.090133982947624515e-03,1.532858880000000090e-01,-3.065717760000000180e-01,9.197153280000000208e+00
1.691117390693539072e+18,2.070645554202192595e-02,-3.532277710109622132e-02,-3.288672350791717325e-02,0.000000000000000000e+00,-3.065717760000000180e-01,9.350439168000001189e+00
1.691117390703539200e+18,2.314250913520097402e-02,-4.872107186358099612e-02,-3.775883069427527633e-02,-1.226287104000000072e+00,-7.664294400000000174e-01,9.810296832000000578e+00
1.691117390713539072e+18,2.070645554202192595e-02,-1.339829476248477480e-02,-6.211936662606577092e-02,-3.065717760000000180e-01,-1.073001215999999980e+00,9.810296832000000578e+00
1.691117390723539200e+18,2.070645554202192595e-02,-2.436053593179049806e-02,-1.108404384896467670e-01,-6.131435520000000361e-01,-3.065717760000000180e-01,9.657010944000001373e+00
1.691117390733539072e+18,1.096224116930572499e-02,-3.288672350791717325e-02,-1.205846528623629732e-01,-4.598576639999999993e-01,-4.598576639999999993e-01,9.657010944000001373e+00
1.691117390743539200e+18,1.461632155907429884e-02,-3.410475030450670075e-02,-1.644336175395858801e-01,-1.073001215999999980e+00,-7.664294400000000174e-01,9.963582719999999782e+00
1.691117390753539072e+18,8.526187576126675188e-03,-2.923264311814859767e-02,-1.985383678440925670e-01,3.065717760000000180e-01,-7.664294400000000174e-01,9.810296832000000578e+00
1.691117390763539200e+18,1.218026796589524903e-02,-3.166869671132764574e-02,-2.338611449451887814e-01,-1.073001215999999980e+00,-6.131435520000000361e-01,9.503725056000000393e+00
1.691117390773539072e+18,3.654080389768574709e-03,-3.045066991473812518e-02,-2.679658952496954960e-01,-6.131435520000000361e-01,-7.664294400000000174e-01,8.890581504000000024e+00
1.691117390783538944e+18,-6.090133982947624515e-03,-1.218026796589524903e-02,-3.239951278928136502e-01,-1.532858880000000090e-01,-9.197153279999999986e-01,9.963582719999999782e+00
1.691117390793539072e+18,-7.308160779537149418e-03,-1.339829476248477480e-02,-3.617539585870889196e-01,-9.197153279999999986e-01,-9.197153279999999986e-01,9.657010944000001373e+00
1.691117390803538944e+18,-1.218026796589524903e-03,-1.339829476248477480e-02,-4.068209500609013540e-01,-6.131435520000000361e-01,-9.197153279999999986e-01,9.810296832000000578e+00
1.691117390813539072e+18,-7.308160779537149418e-03,-2.436053593179049806e-03,-4.457978075517661232e-01,-4.598576639999999993e-01,-7.664294400000000174e-01,9.810296832000000578e+00
1.691117390823538944e+18,0.000000000000000000e+00,2.436053593179049806e-03,-4.750304506699147278e-01,-7.664294400000000174e-01,-7.664294400000000174e-01,9.810296832000000578e+00
1.691117390833539072e+18,-6.090133982947624515e-03,2.679658952496954960e-02,-5.042630937880633324e-01,-3.065717760000000180e-01,-1.073001215999999980e+00,9.657010944000001373e+00
1.691117390843538944e+18,-7.308160779537149418e-03,1.705237515225335038e-02,-5.420219244823386573e-01,-9.197153279999999986e-01,-4.598576639999999993e-01,9.350439168000001189e+00
1.691117390853539072e+18,-1.461632155907429884e-02,-1.218026796589524903e-03,-5.676004872107186516e-01,-1.532858880000000035e+00,-6.131435520000000361e-01,9.810296832000000578e+00
1.691117390863538944e+18,-4.872107186358099612e-03,-3.654080389768574709e-03,-5.883069427527405360e-01,-1.073001215999999980e+00,-6.131435520000000361e-01,9.657010944000001373e+00
1.691117390873539328e+18,-1.096224116930572499e-02,-8.526187576126675188e-03,-6.053593179049938655e-01,-1.686144768000000127e+00,-4.598576639999999993e-01,9.503725056000000393e+00
1.691117390883539200e+18,-7.308160779537149418e-03,1.096224116930572499e-02,-6.102314250913519755e-01,-1.379572992000000164e+00,-6.131435520000000361e-01,9.503725056000000393e+00
1.691117390893539072e+18,-7.308160779537149418e-03,1.948842874543239845e-02,-6.297198538367844156e-01,-1.379572992000000164e+00,-4.598576639999999993e-01,9.657010944000001373e+00
1.691117390903539200e+18,-1.339829476248477480e-02,1.583434835566382287e-02,-6.333739342265529704e-01,-9.197153279999999986e-01,-6.131435520000000361e-01,9.350439168000001189e+00
1.691117390913539072e+18,2.436053593179049806e-03,2.436053593179049806e-03,-6.686967113276491848e-01,-9.197153279999999986e-01,-6.131435520000000361e-01,9.503725056000000393e+00
1.691117390923539200e+18,-1.218026796589524903e-03,-2.679658952496954960e-02,-6.747868453105968500e-01,-1.073001215999999980e+00,-4.598576639999999993e-01,9.503725056000000393e+00
1.691117390933539072e+18,-1.218026796589524903e-02,-2.314250913520097402e-02,-6.869671132764920696e-01,-1.226287104000000072e+00,-3.065717760000000180e-01,9.503725056000000393e+00
1.691117390943539200e+18,2.436053593179049806e-03,-2.070645554202192595e-02,-6.820950060901339596e-01,-7.664294400000000174e-01,-3.065717760000000180e-01,9.657010944000001373e+00
1.691117390953539072e+18,2.436053593179049806e-03,-9.744214372716199224e-03,-6.833130328867235148e-01,-7.664294400000000174e-01,-4.598576639999999993e-01,9.350439168000001189e+00
1.691117390963539200e+18,6.090133982947624515e-03,-1.827040194884287441e-02,-6.772228989037758495e-01,-1.226287104000000072e+00,-3.065717760000000180e-01,9.657010944000001373e+00
1.691117390973539072e+18,1.096224116930572499e-02,-1.583434835566382287e-02,-6.686967113276491848e-01,-1.532858880000000090e-01,0.000000000000000000e+00,9.657010944000001373e+00
1.691117390983539200e+18,0.000000000000000000e+00,-9.744214372716199224e-03,-6.504263093788062999e-01,-9.197153279999999986e-01,0.000000000000000000e+00,9.657010944000001373e+00
1.691117390993539072e+18,2.436053593179049806e-03,-4.872107186358099612e-03,-6.309378806333739709e-01,-3.065717760000000180e-01,4.598576639999999993e-01,9.657010944000001373e+00
1.691117391003539200e+18,2.436053593179049806e-03,2.436053593179049806e-03,-6.102314250913519755e-01,-3.065717760000000180e-01,-3.065717760000000180e-01,9.350439168000001189e+00
1.691117391013539072e+18,4.872107186358099612e-03,6.090133982947624515e-03,-5.931790499390986460e-01,-6.131435520000000361e-01,1.532858880000000090e-01,9.810296832000000578e+00
1.691117391023538944e+18,-1.218026796589524903e-03,9.744214372716199224e-03,-5.639464068209500969e-01,-6.131435520000000361e-01,3.065717760000000180e-01,9.810296832000000578e+00
1.691117391033539072e+18,6.090133982947624515e-03,4.872107186358099612e-03,-5.200974421437271067e-01,-3.065717760000000180e-01,3.065717760000000180e-01,9.350439168000001189e+00
1.691117391043538944e+18,-9.744214372716199224e-03,9.744214372716199224e-03,-4.957369062119366676e-01,-3.065717760000000180e-01,3.065717760000000180e-01,9.503725056000000393e+00
1.691117391053539072e+18,2.436053593179049806e-03,7.308160779537149418e-03,-4.628501827040195082e-01,-7.664294400000000174e-01,4.598576639999999993e-01,9.503725056000000393e+00
1.691117391063538944e+18,1.218026796589524903e-03,2.557856272838002556e-02,-4.202192448233861288e-01,-4.598576639999999993e-01,4.598576639999999993e-01,9.657010944000001373e+00
1.691117391073539072e+18,-6.090133982947624515e-03,1.705237515225335038e-02,-3.861144945188794142e-01,0.000000000000000000e+00,4.598576639999999993e-01,9.503725056000000393e+00
1.691117391083538944e+18,-2.436053593179049806e-03,1.948842874543239845e-02,-3.337393422655298147e-01,-4.598576639999999993e-01,4.598576639999999993e-01,9.657010944000001373e+00
1.691117391093539072e+18,-6.090133982947624515e-03,1.948842874543239845e-02,-2.971985383678441006e-01,-7.664294400000000174e-01,4.598576639999999993e-01,9.503725056000000393e+00
1.691117391103538944e+18,3.654080389768574709e-03,3.654080389768574709e-03,-2.545676004872107212e-01,-3.065717760000000180e-01,4.598576639999999993e-01,9.503725056000000393e+00
1.691117391113539072e+18,-1.461632155907429884e-02,9.744214372716199224e-03,-2.143727161997563968e-01,-4.598576639999999993e-01,4.598576639999999993e-01,9.657010944000001373e+00
1.691117391123539200e+18,-4.872107186358099612e-03,8.526187576126675188e-03,-1.778319123020706549e-01,-4.598576639999999993e-01,3.065717760000000180e-01,9.503725056000000393e+00
1.691117391133539072e+18,-6.090133982947624515e-03,9.744214372716199224e-03,-1.327649208282582205e-01,-4.598576639999999993e-01,3.065717760000000180e-01,9.503725056000000393e+00
1.691117391143539200e+18,-7.308160779537149418e-03,3.654080389768574709e-03,-8.891595615103532746e-02,-6.131435520000000361e-01,3.065717760000000180e-01,9.350439168000001189e+00
1.691117391153539072e+18,-3.654080389768574709e-03,-6.090133982947624515e-03,-3.897685749086479690e-02,-3.065717760000000180e-01,3.065717760000000180e-01,9.503725056000000393e+00
1.691117391163539200e+18,1.096224116930572499e-02,-2.436053593179049806e-03,-7.308160779537149418e-03,-4.598576639999999993e-01,1.532858880000000090e-01,9.503725056000000393e+00
1.691117391173539072e+18,3.654080389768574709e-03,-6.090133982947624515e-03,1.461632155907429884e-02,-4.598576639999999993e-01,0.000000000000000000e+00,9.503725056000000393e+00
1.691117391183539200e+18,1.096224116930572499e-02,-2.436053593179049806e-03,5.237515225334957170e-02,0.000000000000000000e+00,0.000000000000000000e+00,9.657010944000001373e+00
1.691117391193539072e+18,0.000000000000000000e+00,0.000000000000000000e+00,6.333739342265529149e-02,-3.065717760000000180e-01,0.000000000000000000e+00,9.657010944000001373e+00
1.691117391203539200e+18,1.827040194884287441e-02,-1.218026796589524903e-03,7.308160779537149765e-02,-3.065717760000000180e-01,-1.532858880000000090e-01,9.657010944000001373e+00
1.691117391213539072e+18,1.339829476248477480e-02,0.000000000000000000e+00,8.526187576126674494e-02,-6.131435520000000361e-01,0.000000000000000000e+00,9.657010944000001373e+00
1.691117391223539200e+18,4.872107186358099612e-03,1.218026796589524903e-03,8.769792935444579995e-02,-4.598576639999999993e-01,0.000000000000000000e+00,9.657010944000001373e+00
1.691117391233539072e+18,1.948842874543239845e-02,9.744214372716199224e-03,9.622411693057247861e-02,-6.131435520000000361e-01,0.000000000000000000e+00,9.657010944000001373e+00
1.691117391243539200e+18,1.096224116930572499e-02,6.090133982947624515e-03,1.047503045066991434e-01,-4.598576639999999993e-01,0.000000000000000000e+00,9.657010944000001373e+00
1.691117391253539072e+18,8.526187576126675188e-03,2.436053593179049806e-03,1.108404384896467670e-01,-6.131435520000000361e-01,0.000000000000000000e+00,9.657010944000001373e+00
1.691117391263539200e+18,3.654080389768574709e-03,1.218026796589524903e-02,1.047503045066991434e-01,-9.197153279999999986e-01,-1.532858880000000090e-01,9.503725056000000393e+00
1.691117391273539072e+18,3.654080389768574709e-03,1.096224116930572499e-02,1.023142509135201023e-01,-1.073001215999999980e+00,-1.532858880000000090e-01,9.503725056000000393e+00
1.691117391283538944e+18,-1.461632155907429884e-02,1.583434835566382287e-02,9.135200974421436859e-02,-9.197153279999999986e-01,0.000000000000000000e+00,9.503725056000000393e+00
1.691117391293539072e+18,-1.096224116930572499e-02,9.744214372716199224e-03,8.647990255785627245e-02,-1.073001215999999980e+00,-1.532858880000000090e-01,9.657010944000001373e+00
1.691117391303538944e+18,0.000000000000000000e+00,1.583434835566382287e-02,6.820950060901340151e-02,-6.131435520000000361e-01,-3.065717760000000180e-01,9.810296832000000578e+00
1.691117391313539072e+18,-1.583434835566382287e-02,8.526187576126675188e-03,5.359317904993909920e-02,-1.226287104000000072e+00,-4.598576639999999993e-01,9.503725056000000393e+00
1.691117391323538944e+18,-2.436053593179049806e-03,1.218026796589524903e-02,3.654080389768574882e-02,-9.197153279999999986e-01,-4.598576639999999993e-01,9.503725056000000393e+00
1.691117391333539072e+18,-1.218026796589524903e-02,1.218026796589524903e-02,2.070645554202192595e-02,-9.197153279999999986e-01,-6.131435520000000361e-01,9.503725056000000393e+00
1.691117391343538944e+18,-6.090133982947624515e-03,1.583434835566382287e-02,6.090133982947624515e-03,-9.197153279999999986e-01,-4.598576639999999993e-01,9.503725056000000393e+00
1.691117391353539072e+18,-3.654080389768574709e-03,1.705237515225335038e-02,-3.288672350791717325e-02,-6.131435520000000361e-01,-4.598576639999999993e-01,9.657010944000001373e+00
1.691117391363538944e+18,7.308160779537149418e-03,1.461632155907429884e-02,-2.314250913520097402e-02,-1.532858880000000090e-01,-3.065717760000000180e-01,9.503725056000000393e+00
1.691117391373539328e+18,6.090133982947624515e-03,2.436053593179049806e-02,-4.263093788063337247e-02,-4.598576639999999993e-01,-3.065717760000000180e-01,9.657010944000001373e+00
1.691117391383539200e+18,6.090133982947624515e-03,2.070645554202192595e-02,-4.993909866017052362e-02,-3.065717760000000180e-01,-1.532858880000000090e-01,9.503725056000000393e+00
1.691117391393539072e+18,6.090133982947624515e-03,2.192448233861144999e-02,-5.481120584652862671e-02,0.000000000000000000e+00,0.000000000000000000e+00,9.657010944000001373e+00
1.691117391403539200e+18,4.872107186358099612e-03,3.166869671132764574e-02,-4.019488428745432440e-02,-1.532858880000000090e-01,0.000000000000000000e+00,9.503725056000000393e+00
1.691117391413539072e+18,8.526187576126675188e-03,2.679658952496954960e-02,-3.045066991473812518e-02,1.532858880000000090e-01,0.000000000000000000e+00,9.657010944000001373e+00
1.691117391423539200e+18,-7.308160779537149418e-03,2.557856272838002556e-02,-6.090133982947624515e-03,0.000000000000000000e+00,1.532858880000000090e-01,9.503725056000000393e+00
1.691117391433539072e+18,2.436053593179049806e-03,2.923264311814859767e-02,3.166869671132764574e-02,1.532858880000000090e-01,0.000000000000000000e+00,9.503725056000000393e+00
1.691117391443539200e+18,0.000000000000000000e+00,3.288672350791717325e-02,3.654080389768574882e-02,1.532858880000000090e-01,3.065717760000000180e-01,9.350439168000001189e+00
1.691117391453539072e+18,-1.583434835566382287e-02,3.654080389768574882e-02,6.211936662606577092e-02,-1.532858880000000090e-01,3.065717760000000180e-01,9.963582719999999782e+00
1.691117391463539200e+18,-7.308160779537149418e-03,3.288672350791717325e-02,7.186358099878197014e-02,0.000000000000000000e+00,3.065717760000000180e-01,9.503725056000000393e+00
1.691117391473539072e+18,-1.096224116930572499e-02,2.801461632155907364e-02,8.769792935444579995e-02,7.664294400000000174e-01,1.532858880000000090e-01,9.350439168000001189e+00
1.691117391483539200e+18,-1.218026796589524903e-02,2.192448233861144999e-02,9.866017052375151974e-02,1.532858880000000035e+00,1.532858880000000090e-01,9.503725056000000393e+00
1.691117391493539072e+18,1.218026796589524903e-03,3.288672350791717325e-02,9.987819732034104725e-02,1.226287104000000072e+00,-3.065717760000000180e-01,9.963582719999999782e+00
1.691117391503539200e+18,6.090133982947624515e-03,3.532277710109622132e-02,1.108404384896467670e-01,7.664294400000000174e-01,0.000000000000000000e+00,9.350439168000001189e+00
1.691117391513539072e+18,-8.526187576126675188e-03,3.410475030450670075e-02,1.254567600487210832e-01,1.073001215999999980e+00,-1.532858880000000090e-01,9.503725056000000393e+00
1.691117391523538944e+18,1.339829476248477480e-02,3.410475030450670075e-02,1.132764920828258220e-01,1.226287104000000072e+00,-1.532858880000000090e-01,9.503725056000000393e+00
1.691117391533539072e+18,-2.436053593179049806e-03,3.166869671132764574e-02,1.169305724725943907e-01,1.226287104000000072e+00,-1.532858880000000090e-01,9.503725056000000393e+00
1.691117391543538944e+18,3.654080389768574709e-03,2.436053593179049806e-02,1.218026796589525007e-01,1.226287104000000072e+00,-4.598576639999999993e-01,9.503725056000000393e+00
1.691117391553539072e+18,-3.654080389768574709e-03,1.827040194884287441e-02,1.108404384896467670e-01,1.073001215999999980e+00,-1.532858880000000090e-01,9.503725056000000393e+00
1.691117391563538944e+18,1.583434835566382287e-02,1.583434835566382287e-02,1.096224116930572534e-01,1.226287104000000072e+00,0.000000000000000000e+00,9.503725056000000393e+00
1.691117391573539072e+18,-6.090133982947624515e-03,1.583434835566382287e-02,9.500609013398295111e-02,9.197153279999999986e-01,-1.532858880000000090e-01,9.657010944000001373e+00
1.691117391583538944e+18,3.654080389768574709e-03,8.526187576126675188e-03,9.987819732034104725e-02,9.197153279999999986e-01,-3.065717760000000180e-01,9.503725056000000393e+00
1.691117391593539072e+18,2.436053593179049806e-03,9.744214372716199224e-03,8.647990255785627245e-02,1.226287104000000072e+00,-1.532858880000000090e-01,9.503725056000000393e+00
1.691117391603538944e+18,4.872107186358099612e-03,-6.090133982947624515e-03,8.404384896467721744e-02,1.073001215999999980e+00,-3.065717760000000180e-01,9.503725056000000393e+00
1.691117391613539072e+18,-2.436053593179049806e-03,1.218026796589524903e-03,6.699147381242387400e-02,1.532858880000000035e+00,-3.065717760000000180e-01,9.503725056000000393e+00
1.691117391623539200e+18,0.000000000000000000e+00,-6.090133982947624515e-03,6.455542021924481899e-02,9.197153279999999986e-01,-1.532858880000000090e-01,9.810296832000000578e+00
1.691117391633539072e+18,-4.872107186358099612e-03,-1.218026796589524903e-03,5.115712545676005113e-02,1.226287104000000072e+00,-1.532858880000000090e-01,9.657010944000001373e+00
1.691117391643539200e+18,-9.744214372716199224e-03,-3.654080389768574709e-03,4.750304506699147555e-02,1.226287104000000072e+00,-3.065717760000000180e-01,9.503725056000000393e+00
1.691117391653539072e+18,8.526187576126675188e-03,-2.436053593179049806e-03,3.897685749086479690e-02,1.073001215999999980e+00,-3.065717760000000180e-01,9.657010944000001373e+00
1.691117391663539200e+18,-6.090133982947624515e-03,-3.654080389768574709e-03,3.654080389768574882e-02,1.073001215999999980e+00,-3.065717760000000180e-01,9.503725056000000393e+00
1.691117391673539072e+18,-8.526187576126675188e-03,9.744214372716199224e-03,1.827040194884287441e-02,1.073001215999999980e+00,-1.532858880000000090e-01,9.657010944000001373e+00
1.691117391683539200e+18,4.872107186358099612e-03,1.461632155907429884e-02,1.461632155907429884e-02,9.197153279999999986e-01,-3.065717760000000180e-01,9.503725056000000393e+00
1.691117391693539072e+18,-8.526187576126675188e-03,4.872107186358099612e-03,2.314250913520097402e-02,1.379572992000000164e+00,-1.532858880000000090e-01,9.657010944000001373e+00
1.691117391703539200e+18,2.436053593179049806e-03,7.308160779537149418e-03,1.705237515225335038e-02,1.073001215999999980e+00,-1.532858880000000090e-01,9.657010944000001373e+00
1.691117391713539072e+18,2.436053593179049806e-03,1.096224116930572499e-02,1.583434835566382287e-02,1.379572992000000164e+00,-1.532858880000000090e-01,9.503725056000000393e+00
1.691117391723539200e+18,6.090133982947624515e-03,2.314250913520097402e-02,2.070645554202192595e-02,9.197153279999999986e-01,-1.532858880000000090e-01,9.350439168000001189e+00
1.691117391733539072e+18,3.654080389768574709e-03,1.096224116930572499e-02,3.410475030450670075e-02,6.131435520000000361e-01,0.000000000000000000e+00,9.350439168000001189e+00
1.691117391743539200e+18,3.654080389768574709e-03,-1.218026796589524903e-03,4.019488428745432440e-02,3.065717760000000180e-01,0.000000000000000000e+00,9.503725056000000393e+00
1.691117391753539072e+18,4.872107186358099612e-03,-1.218026796589524903e-03,4.384896467722289998e-02,3.065717760000000180e-01,-1.532858880000000090e-01,9.350439168000001189e+00
1.691117391763539200e+18,1.218026796589524903e-03,-1.583434835566382287e-02,6.090133982947625035e-02,-1.532858880000000090e-01,-1.532858880000000090e-01,8.890581504000000024e+00
1.691117391773539072e+18,0.000000000000000000e+00,-2.070645554202192595e-02,5.359317904993909920e-02,-1.532858880000000090e-01,-1.532858880000000090e-01,9.350439168000001189e+00
