# timestamp, wx, wy, wz, ax, ay, az
1.691116804753040896e+18,8.526187576126675188e-03,9.744214372716199224e-03,2.557856272838002556e-02,0.000000000000000000e+00,0.000000000000000000e+00,9.503725056000000393e+00
1.691116804763040768e+18,-7.308160779537149418e-03,1.339829476248477480e-02,2.801461632155907364e-02,4.598576639999999993e-01,-1.532858880000000090e-01,9.657010944000001373e+00
1.691116804773040896e+18,2.436053593179049806e-03,7.308160779537149418e-03,3.532277710109622132e-02,3.065717760000000180e-01,-1.532858880000000090e-01,9.657010944000001373e+00
1.691116804783040768e+18,-2.436053593179049806e-03,1.096224116930572499e-02,3.532277710109622132e-02,1.532858880000000090e-01,0.000000000000000000e+00,9.503725056000000393e+00
1.691116804793040640e+18,-2.436053593179049806e-03,-1.218026796589524903e-03,3.532277710109622132e-02,0.000000000000000000e+00,0.000000000000000000e+00,9.503725056000000393e+00
1.691116804803040768e+18,3.654080389768574709e-03,8.526187576126675188e-03,3.654080389768574882e-02,1.532858880000000090e-01,0.000000000000000000e+00,9.503725056000000393e+00
1.691116804813040640e+18,1.096224116930572499e-02,4.872107186358099612e-03,3.166869671132764574e-02,0.000000000000000000e+00,0.000000000000000000e+00,9.657010944000001373e+00
1.691116804823040768e+18,-7.308160779537149418e-03,8.526187576126675188e-03,3.045066991473812518e-02,1.532858880000000090e-01,0.000000000000000000e+00,9.503725056000000393e+00
1.691116804833040640e+18,3.654080389768574709e-03,0.000000000000000000e+00,2.314250913520097402e-02,3.065717760000000180e-01,-1.532858880000000090e-01,9.503725056000000393e+00
1.691116804843040768e+18,-3.654080389768574709e-03,1.339829476248477480e-02,2.801461632155907364e-02,1.532858880000000090e-01,0.000000000000000000e+00,9.503725056000000393e+00
1.691116804853040640e+18,-7.308160779537149418e-03,1.096224116930572499e-02,3.410475030450670075e-02,0.000000000000000000e+00,-1.532858880000000090e-01,9.503725056000000393e+00
1.691116804863040768e+18,0.000000000000000000e+00,1.339829476248477480e-02,3.166869671132764574e-02,3.065717760000000180e-01,-1.532858880000000090e-01,9.657010944000001373e+00
1.691116804873040640e+18,-4.872107186358099612e-03,1.096224116930572499e-02,2.801461632155907364e-02,0.000000000000000000e+00,0.000000000000000000e+00,9.503725056000000393e+00
1.691116804883041024e+18,-1.218026796589524903e-03,4.872107186358099612e-03,2.923264311814859767e-02,0.000000000000000000e+00,0.000000000000000000e+00,9.657010944000001373e+00
1.691116804893040896e+18,0.000000000000000000e+00,1.218026796589524903e-02,2.923264311814859767e-02,1.532858880000000090e-01,0.000000000000000000e+00,9.503725056000000393e+00
1.691116804903040768e+18,-1.096224116930572499e-02,1.339829476248477480e-02,2.314250913520097402e-02,0.000000000000000000e+00,0.000000000000000000e+00,9.657010944000001373e+00
1.691116804913040896e+18,-3.654080389768574709e-03,1.461632155907429884e-02,3.410475030450670075e-02,-1.532858880000000090e-01,0.000000000000000000e+00,9.657010944000001373e+00
1.691116804923040768e+18,4.872107186358099612e-03,1.461632155907429884e-02,2.557856272838002556e-02,1.532858880000000090e-01,-1.532858880000000090e-01,9.657010944000001373e+00
1.691116804933040896e+18,1.218026796589524903e-03,9.744214372716199224e-03,3.166869671132764574e-02,1.532858880000000090e-01,-1.532858880000000090e-01,9.657010944000001373e+00
1.691116804943040768e+18,0.000000000000000000e+00,6.090133982947624515e-03,3.166869671132764574e-02,1.532858880000000090e-01,0.000000000000000000e+00,9.657010944000001373e+00
1.691116804953040896e+18,-3.654080389768574709e-03,8.526187576126675188e-03,3.410475030450670075e-02,0.000000000000000000e+00,-1.532858880000000090e-01,9.657010944000001373e+00
1.691116804963040768e+18,-4.872107186358099612e-03,9.744214372716199224e-03,3.166869671132764574e-02,1.532858880000000090e-01,0.000000000000000000e+00,9.657010944000001373e+00
1.691116804973040896e+18,0.000000000000000000e+00,1.218026796589524903e-02,3.654080389768574882e-02,1.532858880000000090e-01,-1.532858880000000090e-01,9.503725056000000393e+00
1.691116804983040768e+18,-9.744214372716199224e-03,8.526187576126675188e-03,2.070645554202192595e-02,0.000000000000000000e+00,-1.532858880000000090e-01,9.350439168000001189e+00
1.691116804993040896e+18,-1.218026796589524903e-03,3.654080389768574709e-03,3.288672350791717325e-02,1.532858880000000090e-01,0.000000000000000000e+00,9.657010944000001373e+00
1.691116805003040768e+18,-6.090133982947624515e-03,6.090133982947624515e-03,2.557856272838002556e-02,3.065717760000000180e-01,-1.532858880000000090e-01,9.657010944000001373e+00
1.691116805013040896e+18,-3.654080389768574709e-03,8.526187576126675188e-03,3.288672350791717325e-02,3.065717760000000180e-01,-1.532858880000000090e-01,9.657010944000001373e+00
1.691116805023040768e+18,0.000000000000000000e+00,9.744214372716199224e-03,3.166869671132764574e-02,1.532858880000000090e-01,0.000000000000000000e+00,9.657010944000001373e+00
1.691116805033040640e+18,-1.218026796589524903e-02,8.526187576126675188e-03,2.923264311814859767e-02,4.598576639999999993e-01,-1.532858880000000090e-01,9.810296832000000578e+00
1.691116805043040768e+18,7.308160779537149418e-03,9.744214372716199224e-03,2.923264311814859767e-02,1.532858880000000090e-01,0.000000000000000000e+00,9.657010944000001373e+00
1.691116805053040640e+18,-1.096224116930572499e-02,1.339829476248477480e-02,3.532277710109622132e-02,1.532858880000000090e-01,0.000000000000000000e+00,9.503725056000000393e+00
1.691116805063040768e+18,2.436053593179049806e-03,1.583434835566382287e-02,2.679658952496954960e-02,1.532858880000000090e-01,-1.532858880000000090e-01,9.503725056000000393e+00
1.691116805073040640e+18,-1.705237515225335038e-02,7.308160779537149418e-03,2.923264311814859767e-02,4.598576639999999993e-01,0.000000000000000000e+00,9.503725056000000393e+00
1.691116805083040768e+18,2.436053593179049806e-03,1.339829476248477480e-02,2.801461632155907364e-02,1.532858880000000090e-01,0.000000000000000000e+00,9.503725056000000393e+00
1.691116805093040640e+18,-3.654080389768574709e-03,1.339829476248477480e-02,2.679658952496954960e-02,4.598576639999999993e-01,-1.532858880000000090e-01,9.657010944000001373e+00
1.691116805103040768e+18,3.654080389768574709e-03,9.744214372716199224e-03,3.410475030450670075e-02,4.598576639999999993e-01,-1.532858880000000090e-01,9.657010944000001373e+00
1.691116805113040640e+18,4.872107186358099612e-03,8.526187576126675188e-03,2.679658952496954960e-02,1.532858880000000090e-01,-1.532858880000000090e-01,9.350439168000001189e+00
1.691116805123040768e+18,0.000000000000000000e+00,1.218026796589524903e-02,2.679658952496954960e-02,3.065717760000000180e-01,0.000000000000000000e+00,9.503725056000000393e+00
1.691116805133040896e+18,-2.436053593179049806e-03,1.461632155907429884e-02,2.557856272838002556e-02,4.598576639999999993e-01,0.000000000000000000e+00,9.503725056000000393e+00
1.691116805143040768e+18,4.872107186358099612e-03,4.872107186358099612e-03,2.801461632155907364e-02,0.000000000000000000e+00,0.000000000000000000e+00,9.503725056000000393e+00
1.691116805153040896e+18,3.654080389768574709e-03,7.308160779537149418e-03,3.410475030450670075e-02,3.065717760000000180e-01,-1.532858880000000090e-01,9.657010944000001373e+00
1.691116805163040768e+18,-6.090133982947624515e-03,1.218026796589524903e-02,2.679658952496954960e-02,1.532858880000000090e-01,0.000000000000000000e+00,9.503725056000000393e+00
1.691116805173040896e+18,-9.744214372716199224e-03,3.654080389768574709e-03,3.410475030450670075e-02,3.065717760000000180e-01,0.000000000000000000e+00,9.657010944000001373e+00
1.691116805183040768e+18,-2.436053593179049806e-03,1.218026796589524903e-02,3.410475030450670075e-02,0.000000000000000000e+00,0.000000000000000000e+00,9.657010944000001373e+00
1.691116805193040896e+18,4.872107186358099612e-03,8.526187576126675188e-03,3.288672350791717325e-02,0.000000000000000000e+00,0.000000000000000000e+00,9.657010944000001373e+00
1.691116805203040768e+18,3.654080389768574709e-03,7.308160779537149418e-03,2.679658952496954960e-02,3.065717760000000180e-01,-1.532858880000000090e-01,9.503725056000000393e+00
1.691116805213040896e+18,2.436053593179049806e-03,1.705237515225335038e-02,2.679658952496954960e-02,3.065717760000000180e-01,-1.532858880000000090e-01,9.657010944000001373e+00
1.691116805223040768e+18,2.436053593179049806e-03,6.090133982947624515e-03,2.679658952496954960e-02,1.532858880000000090e-01,0.000000000000000000e+00,9.503725056000000393e+00
1.691116805233040896e+18,-1.096224116930572499e-02,1.339829476248477480e-02,2.801461632155907364e-02,1.532858880000000090e-01,0.000000000000000000e+00,9.657010944000001373e+00
1.691116805243040768e+18,2.436053593179049806e-03,1.218026796589524903e-02,3.166869671132764574e-02,4.598576639999999993e-01,-1.532858880000000090e-01,9.503725056000000393e+00
1.691116805253040896e+18,-1.339829476248477480e-02,1.096224116930572499e-02,2.923264311814859767e-02,1.532858880000000090e-01,-1.532858880000000090e-01,9.503725056000000393e+00
1.691116805263040768e+18,7.308160779537149418e-03,1.461632155907429884e-02,2.801461632155907364e-02,1.532858880000000090e-01,0.000000000000000000e+00,9.350439168000001189e+00
1.691116805273040896e+18,1.218026796589524903e-03,1.705237515225335038e-02,3.654080389768574882e-02,1.532858880000000090e-01,-1.532858880000000090e-01,9.657010944000001373e+00
1.691116805283040768e+18,2.436053593179049806e-03,1.339829476248477480e-02,3.288672350791717325e-02,3.065717760000000180e-01,-1.532858880000000090e-01,9.503725056000000393e+00
1.691116805293040640e+18,1.218026796589524903e-03,1.461632155907429884e-02,2.801461632155907364e-02,3.065717760000000180e-01,-1.532858880000000090e-01,9.503725056000000393e+00
1.691116805303040768e+18,-1.218026796589524903e-03,1.218026796589524903e-02,2.923264311814859767e-02,0.000000000000000000e+00,0.000000000000000000e+00,9.657010944000001373e+00
1.691116805313040640e+18,2.436053593179049806e-03,9.744214372716199224e-03,2.801461632155907364e-02,3.065717760000000180e-01,0.000000000000000000e+00,9.503725056000000393e+00
1.691116805323040768e+18,1.218026796589524903e-03,1.218026796589524903e-02,3.410475030450670075e-02,1.532858880000000090e-01,-1.532858880000000090e-01,9.657010944000001373e+00
1.691116805333040640e+18,-1.218026796589524903e-03,9.744214372716199224e-03,4.263093788063337247e-02,0.000000000000000000e+00,0.000000000000000000e+00,9.503725056000000393e+00
1.691116805343040768e+18,1.218026796589524903e-03,2.436053593179049806e-03,2.923264311814859767e-02,3.065717760000000180e-01,-1.532858880000000090e-01,9.350439168000001189e+00
1.691116805353040640e+18,0.000000000000000000e+00,7.308160779537149418e-03,3.532277710109622132e-02,0.000000000000000000e+00,-1.532858880000000090e-01,9.657010944000001373e+00
1.691116805363040768e+18,-9.744214372716199224e-03,9.744214372716199224e-03,3.410475030450670075e-02,1.532858880000000090e-01,-1.532858880000000090e-01,9.503725056000000393e+00
1.691116805373040640e+18,3.654080389768574709e-03,9.744214372716199224e-03,2.923264311814859767e-02,1.532858880000000090e-01,0.000000000000000000e+00,9.657010944000001373e+00
1.691116805383041024e+18,8.526187576126675188e-03,6.090133982947624515e-03,3.166869671132764574e-02,1.532858880000000090e-01,-1.532858880000000090e-01,9.503725056000000393e+00
1.691116805393040896e+18,3.654080389768574709e-03,1.339829476248477480e-02,2.314250913520097402e-02,1.532858880000000090e-01,0.000000000000000000e+00,9.503725056000000393e+00
1.691116805403040768e+18,1.218026796589524903e-03,7.308160779537149418e-03,3.166869671132764574e-02,1.532858880000000090e-01,0.000000000000000000e+00,9.657010944000001373e+00
1.691116805413040896e+18,2.436053593179049806e-03,7.308160779537149418e-03,2.436053593179049806e-02,0.000000000000000000e+00,-1.532858880000000090e-01,9.657010944000001373e+00
1.691116805423040768e+18,3.654080389768574709e-03,1.218026796589524903e-02,2.679658952496954960e-02,6.131435520000000361e-01,-1.532858880000000090e-01,9.503725056000000393e+00
1.691116805433040896e+18,8.526187576126675188e-03,1.461632155907429884e-02,2.679658952496954960e-02,1.532858880000000090e-01,-1.532858880000000090e-01,9.657010944000001373e+00
1.691116805443040768e+18,2.436053593179049806e-03,7.308160779537149418e-03,3.288672350791717325e-02,1.532858880000000090e-01,-3.065717760000000180e-01,9.503725056000000393e+00
1.691116805453040896e+18,-2.436053593179049806e-03,1.218026796589524903e-02,2.557856272838002556e-02,1.532858880000000090e-01,-1.532858880000000090e-01,9.503725056000000393e+00
1.691116805463040768e+18,2.436053593179049806e-03,1.218026796589524903e-02,3.166869671132764574e-02,0.000000000000000000e+00,-1.532858880000000090e-01,9.503725056000000393e+00
1.691116805473040896e+18,0.000000000000000000e+00,6.090133982947624515e-03,3.288672350791717325e-02,1.532858880000000090e-01,-1.532858880000000090e-01,9.503725056000000393e+00
1.691116805483040768e+18,1.218026796589524903e-03,7.308160779537149418e-03,2.679658952496954960e-02,1.532858880000000090e-01,-1.532858880000000090e-01,9.503725056000000393e+00
1.691116805493040896e+18,-8.526187576126675188e-03,6.090133982947624515e-03,2.192448233861144999e-02,1.532858880000000090e-01,-3.065717760000000180e-01,9.657010944000001373e+00
1.691116805503040768e+18,3.654080389768574709e-03,4.872107186358099612e-03,3.410475030450670075e-02,3.065717760000000180e-01,-1.532858880000000090e-01,9.503725056000000393e+00
1.691116805513040896e+18,0.000000000000000000e+00,9.744214372716199224e-03,3.532277710109622132e-02,3.065717760000000180e-01,-1.532858880000000090e-01,9.657010944000001373e+00
1.691116805523040768e+18,4.872107186358099612e-03,6.090133982947624515e-03,2.923264311814859767e-02,0.000000000000000000e+00,-1.532858880000000090e-01,9.657010944000001373e+00
1.691116805533040640e+18,2.436053593179049806e-03,9.744214372716199224e-03,3.166869671132764574e-02,1.532858880000000090e-01,-1.532858880000000090e-01,9.657010944000001373e+00
1.691116805543040768e+18,2.436053593179049806e-03,7.308160779537149418e-03,2.314250913520097402e-02,1.532858880000000090e-01,-1.532858880000000090e-01,9.810296832000000578e+00
1.691116805553040640e+18,-3.654080389768574709e-03,9.744214372716199224e-03,2.923264311814859767e-02,1.532858880000000090e-01,0.000000000000000000e+00,9.503725056000000393e+00
1.691116805563040768e+18,-4.872107186358099612e-03,7.308160779537149418e-03,3.045066991473812518e-02,1.532858880000000090e-01,0.000000000000000000e+00,9.503725056000000393e+00
1.691116805573040640e+18,3.654080389768574709e-03,1.583434835566382287e-02,3.532277710109622132e-02,3.065717760000000180e-01,0.000000000000000000e+00,9.657010944000001373e+00
1.691116805583040768e+18,-7.308160779537149418e-03,1.096224116930572499e-02,3.288672350791717325e-02,1.532858880000000090e-01,-1.532858880000000090e-01,9.657010944000001373e+00
1.691116805593040640e+18,-7.308160779537149418e-03,2.436053593179049806e-03,3.166869671132764574e-02,3.065717760000000180e-01,0.000000000000000000e+00,9.503725056000000393e+00
1.691116805603040768e+18,-2.436053593179049806e-03,1.827040194884287441e-02,3.045066991473812518e-02,1.532858880000000090e-01,0.000000000000000000e+00,9.503725056000000393e+00
1.691116805613040640e+18,-2.436053593179049806e-03,8.526187576126675188e-03,2.801461632155907364e-02,1.532858880000000090e-01,0.000000000000000000e+00,9.503725056000000393e+00
1.691116805623040768e+18,8.526187576126675188e-03,1.218026796589524903e-02,1.948842874543239845e-02,1.532858880000000090e-01,0.000000000000000000e+00,9.503725056000000393e+00
1.691116805633040896e+18,4.872107186358099612e-03,1.218026796589524903e-02,3.532277710109622132e-02,1.532858880000000090e-01,-1.532858880000000090e-01,9.657010944000001373e+00
1.691116805643040768e+18,-8.526187576126675188e-03,6.090133982947624515e-03,2.436053593179049806e-02,3.065717760000000180e-01,-1.532858880000000090e-01,9.503725056000000393e+00
1.691116805653040896e+18,2.436053593179049806e-03,9.744214372716199224e-03,2.923264311814859767e-02,0.000000000000000000e+00,0.000000000000000000e+00,9.657010944000001373e+00
1.691116805663040768e+18,4.872107186358099612e-03,6.090133982947624515e-03,2.436053593179049806e-02,1.532858880000000090e-01,0.000000000000000000e+00,9.657010944000001373e+00
1.691116805673040896e+18,-6.090133982947624515e-03,7.308160779537149418e-03,2.923264311814859767e-02,1.532858880000000090e-01,-1.532858880000000090e-01,9.657010944000001373e+00
1.691116805683040768e+18,6.090133982947624515e-03,4.872107186358099612e-03,3.166869671132764574e-02,1.532858880000000090e-01,-1.532858880000000090e-01,9.503725056000000393e+00
1.691116805693040896e+18,8.526187576126675188e-03,8.526187576126675188e-03,3.654080389768574882e-02,3.065717760000000180e-01,0.000000000000000000e+00,9.657010944000001373e+00
1.691116805703040768e+18,8.526187576126675188e-03,1.096224116930572499e-02,2.679658952496954960e-02,3.065717760000000180e-01,-1.532858880000000090e-01,9.503725056000000393e+00
1.691116805713040896e+18,0.000000000000000000e+00,1.339829476248477480e-02,2.801461632155907364e-02,4.598576639999999993e-01,-1.532858880000000090e-01,9.503725056000000393e+00
1.691116805723040768e+18,1.218026796589524903e-03,1.339829476248477480e-02,3.410475030450670075e-02,0.000000000000000000e+00,-1.532858880000000090e-01,9.350439168000001189e+00
1.691116805733040896e+18,-1.218026796589524903e-03,9.744214372716199224e-03,2.557856272838002556e-02,-1.532858880000000090e-01,-1.532858880000000090e-01,9.503725056000000393e+00
1.691116805743040768e+18,2.436053593179049806e-03,6.090133982947624515e-03,3.045066991473812518e-02,0.000000000000000000e+00,-1.532858880000000090e-01,9.657010944000001373e+00
1.691116805753040896e+18,-1.096224116930572499e-02,9.744214372716199224e-03,2.801461632155907364e-02,1.532858880000000090e-01,0.000000000000000000e+00,9.503725056000000393e+00
1.691116805763040768e+18,6.090133982947624515e-03,7.308160779537149418e-03,3.166869671132764574e-02,0.000000000000000000e+00,-1.532858880000000090e-01,9.657010944000001373e+00
1.691116805773040896e+18,6.090133982947624515e-03,1.218026796589524903e-02,2.314250913520097402e-02,3.065717760000000180e-01,0.000000000000000000e+00,9.503725056000000393e+00
1.691116805783040768e+18,-8.526187576126675188e-03,6.090133982947624515e-03,3.045066991473812518e-02,0.000000000000000000e+00,-1.532858880000000090e-01,9.503725056000000393e+00
1.691116805793040640e+18,-6.090133982947624515e-03,6.090133982947624515e-03,3.532277710109622132e-02,1.532858880000000090e-01,0.000000000000000000e+00,9.503725056000000393e+00
1.691116805803040768e+18,-3.654080389768574709e-03,8.526187576126675188e-03,3.288672350791717325e-02,1.532858880000000090e-01,0.000000000000000000e+00,9.503725056000000393e+00
1.691116805813040640e+18,7.308160779537149418e-03,7.308160779537149418e-03,3.288672350791717325e-02,1.532858880000000090e-01,0.000000000000000000e+00,9.503725056000000393e+00
1.691116805823040768e+18,-7.308160779537149418e-03,3.654080389768574709e-03,3.166869671132764574e-02,1.532858880000000090e-01,-1.532858880000000090e-01,9.350439168000001189e+00
1.691116805833040640e+18,6.090133982947624515e-03,9.744214372716199224e-03,2.436053593179049806e-02,1.532858880000000090e-01,-1.532858880000000090e-01,9.657010944000001373e+00
1.691116805843040768e+18,2.436053593179049806e-03,1.096224116930572499e-02,3.166869671132764574e-02,3.065717760000000180e-01,0.000000000000000000e+00,9.503725056000000393e+00
1.691116805853040640e+18,-2.436053593179049806e-03,1.096224116930572499e-02,2.314250913520097402e-02,1.532858880000000090e-01,0.000000000000000000e+00,9.503725056000000393e+00
1.691116805863040768e+18,-9.744214372716199224e-03,4.872107186358099612e-03,2.923264311814859767e-02,1.532858880000000090e-01,-1.532858880000000090e-01,9.503725056000000393e+00
1.691116805873040640e+18,7.308160779537149418e-03,1.705237515225335038e-02,2.801461632155907364e-02,3.065717760000000180e-01,0.000000000000000000e+00,9.503725056000000393e+00
1.691116805883041024e+18,9.744214372716199224e-03,4.872107186358099612e-03,2.679658952496954960e-02,0.000000000000000000e+00,-1.532858880000000090e-01,9.810296832000000578e+00
1.691116805893040896e+18,1.218026796589524903e-03,1.339829476248477480e-02,2.923264311814859767e-02,1.532858880000000090e-01,0.000000000000000000e+00,9.503725056000000393e+00
1.691116805903040768e+18,-2.436053593179049806e-03,1.461632155907429884e-02,3.532277710109622132e-02,4.598576639999999993e-01,0.000000000000000000e+00,9.657010944000001373e+00
1.691116805913040896e+18,-4.872107186358099612e-03,6.090133982947624515e-03,3.288672350791717325e-02,0.000000000000000000e+00,-1.532858880000000090e-01,9.503725056000000393e+00
1.691116805923040768e+18,4.872107186358099612e-03,6.090133982947624515e-03,3.410475030450670075e-02,1.532858880000000090e-01,1.532858880000000090e-01,9.657010944000001373e+00
1.691116805933040896e+18,-1.218026796589524903e-03,1.339829476248477480e-02,3.288672350791717325e-02,0.000000000000000000e+00,-1.532858880000000090e-01,9.503725056000000393e+00
1.691116805943040768e+18,-6.090133982947624515e-03,7.308160779537149418e-03,2.923264311814859767e-02,1.532858880000000090e-01,-1.532858880000000090e-01,9.503725056000000393e+00
1.691116805953040896e+18,6.090133982947624515e-03,8.526187576126675188e-03,3.897685749086479690e-02,1.532858880000000090e-01,-1.532858880000000090e-01,9.657010944000001373e+00
1.691116805963040768e+18,3.654080389768574709e-03,7.308160779537149418e-03,3.288672350791717325e-02,-3.065717760000000180e-01,0.000000000000000000e+00,9.503725056000000393e+00
1.691116805973040896e+18,3.654080389768574709e-03,9.744214372716199224e-03,2.436053593179049806e-02,3.065717760000000180e-01,0.000000000000000000e+00,9.657010944000001373e+00
1.691116805983040768e+18,-6.090133982947624515e-03,4.872107186358099612e-03,2.801461632155907364e-02,1.532858880000000090e-01,0.000000000000000000e+00,9.657010944000001373e+00
1.691116805993040896e+18,0.000000000000000000e+00,1.218026796589524903e-02,3.166869671132764574e-02,0.000000000000000000e+00,-1.532858880000000090e-01,9.657010944000001373e+00
1.691116806003040768e+18,9.744214372716199224e-03,9.744214372716199224e-03,3.288672350791717325e-02,3.065717760000000180e-01,0.000000000000000000e+00,9.657010944000001373e+00
1.691116806013040896e+18,-4.872107186358099612e-03,7.308160779537149418e-03,3.166869671132764574e-02,1.532858880000000090e-01,-1.532858880000000090e-01,9.503725056000000393e+00
1.691116806023040768e+18,-3.654080389768574709e-03,1.218026796589524903e-02,3.166869671132764574e-02,3.065717760000000180e-01,-1.532858880000000090e-01,9.503725056000000393e+00
1.691116806033040640e+18,-7.308160779537149418e-03,1.339829476248477480e-02,2.557856272838002556e-02,1.532858880000000090e-01,-1.532858880000000090e-01,9.503725056000000393e+00
1.691116806043040768e+18,-1.096224116930572499e-02,1.339829476248477480e-02,1.948842874543239845e-02,0.000000000000000000e+00,0.000000000000000000e+00,9.657010944000001373e+00
1.691116806053040640e+18,7.308160779537149418e-03,1.218026796589524903e-03,3.045066991473812518e-02,3.065717760000000180e-01,-1.532858880000000090e-01,9.503725056000000393e+00
1.691116806063040768e+18,-1.218026796589524903e-03,9.744214372716199224e-03,2.679658952496954960e-02,0.000000000000000000e+00,-1.532858880000000090e-01,9.503725056000000393e+00
1.691116806073040640e+18,3.654080389768574709e-03,4.872107186358099612e-03,2.679658952496954960e-02,3.065717760000000180e-01,0.000000000000000000e+00,9.657010944000001373e+00
1.691116806083040768e+18,1.339829476248477480e-02,7.308160779537149418e-03,3.045066991473812518e-02,3.065717760000000180e-01,-1.532858880000000090e-01,9.657010944000001373e+00
1.691116806093040640e+18,-3.654080389768574709e-03,6.090133982947624515e-03,3.775883069427527633e-02,1.532858880000000090e-01,-1.532858880000000090e-01,9.350439168000001189e+00
1.691116806103040768e+18,0.000000000000000000e+00,9.744214372716199224e-03,2.801461632155907364e-02,1.532858880000000090e-01,-1.532858880000000090e-01,9.503725056000000393e+00
1.691116806113040640e+18,-1.218026796589524903e-03,7.308160779537149418e-03,3.166869671132764574e-02,1.532858880000000090e-01,-1.532858880000000090e-01,9.810296832000000578e+00
1.691116806123040768e+18,7.308160779537149418e-03,1.705237515225335038e-02,3.654080389768574882e-02,0.000000000000000000e+00,0.000000000000000000e+00,9.503725056000000393e+00
1.691116806133040896e+18,-8.526187576126675188e-03,1.218026796589524903e-02,3.045066991473812518e-02,1.532858880000000090e-01,0.000000000000000000e+00,9.503725056000000393e+00
1.691116806143040768e+18,2.436053593179049806e-03,1.339829476248477480e-02,3.288672350791717325e-02,1.532858880000000090e-01,0.000000000000000000e+00,9.503725056000000393e+00
1.691116806153040896e+18,-6.090133982947624515e-03,9.744214372716199224e-03,2.557856272838002556e-02,1.532858880000000090e-01,0.000000000000000000e+00,9.657010944000001373e+00
1.691116806163040768e+18,-8.526187576126675188e-03,7.308160779537149418e-03,2.679658952496954960e-02,1.532858880000000090e-01,-1.532858880000000090e-01,9.657010944000001373e+00
1.691116806173040896e+18,3.654080389768574709e-03,6.090133982947624515e-03,2.923264311814859767e-02,4.598576639999999993e-01,-1.532858880000000090e-01,9.657010944000001373e+00
1.691116806183040768e+18,-1.218026796589524903e-03,1.096224116930572499e-02,3.045066991473812518e-02,3.065717760000000180e-01,-1.532858880000000090e-01,9.657010944000001373e+00
1.691116806193040896e+18,4.872107186358099612e-03,1.218026796589524903e-02,2.679658952496954960e-02,4.598576639999999993e-01,0.000000000000000000e+00,9.963582719999999782e+00
1.691116806203040768e+18,-2.436053593179049806e-03,8.526187576126675188e-03,2.679658952496954960e-02,1.532858880000000090e-01,0.000000000000000000e+00,9.503725056000000393e+00
1.691116806213040896e+18,2.436053593179049806e-03,1.218026796589524903e-02,3.410475030450670075e-02,1.532858880000000090e-01,-3.065717760000000180e-01,9.503725056000000393e+00
1.691116806223040768e+18,-3.654080389768574709e-03,1.218026796589524903e-02,2.923264311814859767e-02,3.065717760000000180e-01,-1.532858880000000090e-01,9.657010944000001373e+00
1.691116806233040896e+18,3.654080389768574709e-03,1.218026796589524903e-02,3.288672350791717325e-02,1.532858880000000090e-01,-1.532858880000000090e-01,9.503725056000000393e+00
1.691116806243040768e+18,1.096224116930572499e-02,8.526187576126675188e-03,2.557856272838002556e-02,1.532858880000000090e-01,-1.532858880000000090e-01,9.503725056000000393e+00
1.691116806253040896e+18,3.654080389768574709e-03,2.436053593179049806e-03,3.288672350791717325e-02,3.065717760000000180e-01,0.000000000000000000e+00,9.503725056000000393e+00
1.691116806263040768e+18,7.308160779537149418e-03,9.744214372716199224e-03,3.288672350791717325e-02,3.065717760000000180e-01,0.000000000000000000e+00,9.503725056000000393e+00
1.691116806273040896e+18,7.308160779537149418e-03,9.744214372716199224e-03,2.436053593179049806e-02,0.000000000000000000e+00,-3.065717760000000180e-01,9.657010944000001373e+00
1.691116806283040768e+18,1.218026796589524903e-03,9.744214372716199224e-03,3.775883069427527633e-02,3.065717760000000180e-01,-1.532858880000000090e-01,9.503725056000000393e+00
1.691116806293040640e+18,0.000000000000000000e+00,8.526187576126675188e-03,2.679658952496954960e-02,3.065717760000000180e-01,-1.532858880000000090e-01,9.503725056000000393e+00
1.691116806303040768e+18,1.218026796589524903e-03,8.526187576126675188e-03,3.288672350791717325e-02,1.532858880000000090e-01,-3.065717760000000180e-01,9.503725056000000393e+00
1.691116806313040640e+18,-2.436053593179049806e-03,1.461632155907429884e-02,2.801461632155907364e-02,1.532858880000000090e-01,-1.532858880000000090e-01,9.657010944000001373e+00
1.691116806323040768e+18,-1.218026796589524903e-03,8.526187576126675188e-03,3.166869671132764574e-02,0.000000000000000000e+00,0.000000000000000000e+00,9.503725056000000393e+00
1.691116806333040640e+18,-1.218026796589524903e-03,7.308160779537149418e-03,3.288672350791717325e-02,1.532858880000000090e-01,-1.532858880000000090e-01,9.503725056000000393e+00
1.691116806343040768e+18,7.308160779537149418e-03,1.096224116930572499e-02,3.410475030450670075e-02,3.065717760000000180e-01,-1.532858880000000090e-01,9.657010944000001373e+00
1.691116806353040640e+18,-3.654080389768574709e-03,1.339829476248477480e-02,2.923264311814859767e-02,1.532858880000000090e-01,0.000000000000000000e+00,9.503725056000000393e+00
1.691116806363040768e+18,6.090133982947624515e-03,8.526187576126675188e-03,3.045066991473812518e-02,1.532858880000000090e-01,-1.532858880000000090e-01,9.503725056000000393e+00
1.691116806373040640e+18,8.526187576126675188e-03,9.744214372716199224e-03,2.557856272838002556e-02,1.532858880000000090e-01,-1.532858880000000090e-01,9.657010944000001373e+00
1.691116806383041024e+18,0.000000000000000000e+00,0.000000000000000000e+00,3.897685749086479690e-02,3.065717760000000180e-01,0.000000000000000000e+00,9.350439168000001189e+00
1.691116806393040896e+18,-4.872107186358099612e-03,6.090133982947624515e-03,3.288672350791717325e-02,1.532858880000000090e-01,-1.532858880000000090e-01,9.657010944000001373e+00
1.691116806403040768e+18,-4.872107186358099612e-03,1.096224116930572499e-02,2.679658952496954960e-02,1.532858880000000090e-01,-1.532858880000000090e-01,9.657010944000001373e+00
1.691116806413040896e+18,1.218026796589524903e-03,1.339829476248477480e-02,2.679658952496954960e-02,1.532858880000000090e-01,0.000000000000000000e+00,9.657010944000001373e+00
1.691116806423040768e+18,1.218026796589524903e-03,1.218026796589524903e-02,2.801461632155907364e-02,1.532858880000000090e-01,-1.532858880000000090e-01,9.503725056000000393e+00
1.691116806433040896e+18,1.218026796589524903e-03,1.218026796589524903e-03,3.532277710109622132e-02,1.532858880000000090e-01,-1.532858880000000090e-01,9.657010944000001373e+00
1.691116806443040768e+18,-1.218026796589524903e-03,7.308160779537149418e-03,2.923264311814859767e-02,3.065717760000000180e-01,-1.532858880000000090e-01,9.657010944000001373e+00
1.691116806453040896e+18,0.000000000000000000e+00,7.308160779537149418e-03,2.801461632155907364e-02,1.532858880000000090e-01,0.000000000000000000e+00,9.503725056000000393e+00
1.691116806463040768e+18,1.218026796589524903e-02,3.654080389768574709e-03,3.410475030450670075e-02,1.532858880000000090e-01,-1.532858880000000090e-01,9.503725056000000393e+00
1.691116806473040896e+18,8.526187576126675188e-03,1.461632155907429884e-02,3.654080389768574882e-02,1.532858880000000090e-01,0.000000000000000000e+00,9.503725056000000393e+00
1.691116806483040768e+18,0.000000000000000000e+00,1.461632155907429884e-02,3.775883069427527633e-02,4.598576639999999993e-01,-1.532858880000000090e-01,9.503725056000000393e+00
1.691116806493040896e+18,-8.526187576126675188e-03,3.654080389768574709e-03,3.288672350791717325e-02,3.065717760000000180e-01,-1.532858880000000090e-01,9.503725056000000393e+00
1.691116806503040768e+18,3.654080389768574709e-03,1.461632155907429884e-02,3.410475030450670075e-02,6.131435520000000361e-01,-1.532858880000000090e-01,9.657010944000001373e+00
1.691116806513040896e+18,1.218026796589524903e-03,1.218026796589524903e-02,3.166869671132764574e-02,1.532858880000000090e-01,-1.532858880000000090e-01,9.657010944000001373e+00
1.691116806523040768e+18,0.000000000000000000e+00,7.308160779537149418e-03,3.532277710109622132e-02,1.532858880000000090e-01,0.000000000000000000e+00,9.657010944000001373e+00
1.691116806533040640e+18,-3.654080389768574709e-03,8.526187576126675188e-03,3.166869671132764574e-02,-1.532858880000000090e-01,-1.532858880000000090e-01,9.657010944000001373e+00
1.691116806543040768e+18,-7.308160779537149418e-03,9.744214372716199224e-03,2.557856272838002556e-02,1.532858880000000090e-01,0.000000000000000000e+00,9.503725056000000393e+00
1.691116806553040640e+18,-9.744214372716199224e-03,1.096224116930572499e-02,3.532277710109622132e-02,1.532858880000000090e-01,0.000000000000000000e+00,9.503725056000000393e+00
1.691116806563040768e+18,3.654080389768574709e-03,1.218026796589524903e-02,2.923264311814859767e-02,3.065717760000000180e-01,-3.065717760000000180e-01,9.657010944000001373e+00
1.691116806573040640e+18,2.436053593179049806e-03,1.218026796589524903e-02,3.166869671132764574e-02,1.532858880000000090e-01,0.000000000000000000e+00,9.657010944000001373e+00
1.691116806583040768e+18,1.218026796589524903e-03,1.218026796589524903e-02,3.045066991473812518e-02,1.532858880000000090e-01,-1.532858880000000090e-01,9.657010944000001373e+00
1.691116806593040640e+18,6.090133982947624515e-03,8.526187576126675188e-03,3.410475030450670075e-02,1.532858880000000090e-01,-1.532858880000000090e-01,9.657010944000001373e+00
1.691116806603040768e+18,-3.654080389768574709e-03,9.744214372716199224e-03,3.166869671132764574e-02,1.532858880000000090e-01,0.000000000000000000e+00,9.657010944000001373e+00
1.691116806613040640e+18,3.654080389768574709e-03,1.339829476248477480e-02,2.314250913520097402e-02,1.532858880000000090e-01,-1.532858880000000090e-01,9.657010944000001373e+00
1.691116806623040768e+18,-1.218026796589524903e-03,6.090133982947624515e-03,3.410475030450670075e-02,-1.532858880000000090e-01,-1.532858880000000090e-01,9.657010944000001373e+00
1.691116806633040896e+18,-6.090133982947624515e-03,9.744214372716199224e-03,3.288672350791717325e-02,3.065717760000000180e-01,0.000000000000000000e+00,9.657010944000001373e+00
1.691116806643040768e+18,-1.218026796589524903e-03,8.526187576126675188e-03,3.532277710109622132e-02,1.532858880000000090e-01,-1.532858880000000090e-01,9.657010944000001373e+00
1.691116806653040896e+18,-9.744214372716199224e-03,8.526187576126675188e-03,3.410475030450670075e-02,1.532858880000000090e-01,0.000000000000000000e+00,9.503725056000000393e+00
1.691116806663040768e+18,-9.744214372716199224e-03,1.218026796589524903e-02,3.288672350791717325e-02,-3.065717760000000180e-01,-1.532858880000000090e-01,9.503725056000000393e+00
1.691116806673040896e+18,8.526187576126675188e-03,1.096224116930572499e-02,3.045066991473812518e-02,4.598576639999999993e-01,0.000000000000000000e+00,9.810296832000000578e+00
1.691116806683040768e+18,4.872107186358099612e-03,1.339829476248477480e-02,2.436053593179049806e-02,1.532858880000000090e-01,-3.065717760000000180e-01,9.503725056000000393e+00
1.691116806693040896e+18,8.526187576126675188e-03,0.000000000000000000e+00,3.532277710109622132e-02,3.065717760000000180e-01,-1.532858880000000090e-01,9.657010944000001373e+00
1.691116806703040768e+18,2.436053593179049806e-03,7.308160779537149418e-03,2.436053593179049806e-02,1.532858880000000090e-01,0.000000000000000000e+00,9.657010944000001373e+00
1.691116806713040896e+18,1.218026796589524903e-03,6.090133982947624515e-03,2.801461632155907364e-02,1.532858880000000090e-01,0.000000000000000000e+00,9.503725056000000393e+00
1.691116806723040768e+18,-4.872107186358099612e-03,6.090133982947624515e-03,3.532277710109622132e-02,-1.532858880000000090e-01,0.000000000000000000e+00,9.503725056000000393e+00
1.691116806733040896e+18,1.218026796589524903e-03,1.461632155907429884e-02,2.923264311814859767e-02,3.065717760000000180e-01,-1.532858880000000090e-01,9.657010944000001373e+00
1.691116806743040768e+18,-4.872107186358099612e-03,8.526187576126675188e-03,3.166869671132764574e-02,1.532858880000000090e-01,-1.532858880000000090e-01,9.503725056000000393e+00
1.691116806753040896e+18,-6.090133982947624515e-03,4.872107186358099612e-03,3.045066991473812518e-02,1.532858880000000090e-01,0.000000000000000000e+00,9.503725056000000393e+00
1.691116806763040768e+18,0.000000000000000000e+00,1.339829476248477480e-02,3.410475030450670075e-02,3.065717760000000180e-01,-1.532858880000000090e-01,9.503725056000000393e+00
1.691116806773040896e+18,-2.436053593179049806e-03,1.461632155907429884e-02,3.166869671132764574e-02,6.131435520000000361e-01,-3.065717760000000180e-01,9.503725056000000393e+00
1.691116806783040768e+18,-1.096224116930572499e-02,7.308160779537149418e-03,3.532277710109622132e-02,0.000000000000000000e+00,-1.532858880000000090e-01,9.657010944000001373e+00
1.691116806793040640e+18,0.000000000000000000e+00,1.461632155907429884e-02,3.288672350791717325e-02,3.065717760000000180e-01,-1.532858880000000090e-01,9.503725056000000393e+00
1.691116806803040768e+18,-2.436053593179049806e-03,6.090133982947624515e-03,3.654080389768574882e-02,1.532858880000000090e-01,0.000000000000000000e+00,9.503725056000000393e+00
1.691116806813040640e+18,4.872107186358099612e-03,9.744214372716199224e-03,2.923264311814859767e-02,-4.598576639999999993e-01,0.000000000000000000e+00,9.503725056000000393e+00
1.691116806823040768e+18,6.090133982947624515e-03,9.744214372716199224e-03,3.166869671132764574e-02,1.532858880000000090e-01,0.000000000000000000e+00,9.503725056000000393e+00
1.691116806833040640e+18,3.654080389768574709e-03,9.744214372716199224e-03,3.166869671132764574e-02,1.532858880000000090e-01,-1.532858880000000090e-01,9.503725056000000393e+00
1.691116806843040768e+18,3.654080389768574709e-03,1.096224116930572499e-02,3.166869671132764574e-02,0.000000000000000000e+00,-1.532858880000000090e-01,9.503725056000000393e+00
1.691116806853040640e+18,1.218026796589524903e-03,1.096224116930572499e-02,3.532277710109622132e-02,0.000000000000000000e+00,0.000000000000000000e+00,9.657010944000001373e+00
1.691116806863040768e+18,6.090133982947624515e-03,6.090133982947624515e-03,3.045066991473812518e-02,1.532858880000000090e-01,0.000000000000000000e+00,9.657010944000001373e+00
1.691116806873040640e+18,-3.654080389768574709e-03,6.090133982947624515e-03,2.801461632155907364e-02,1.532858880000000090e-01,0.000000000000000000e+00,9.657010944000001373e+00
1.691116806883041024e+18,-6.090133982947624515e-03,8.526187576126675188e-03,2.557856272838002556e-02,1.532858880000000090e-01,0.000000000000000000e+00,9.657010944000001373e+00
1.691116806893040896e+18,4.872107186358099612e-03,8.526187576126675188e-03,2.557856272838002556e-02,-1.532858880000000090e-01,0.000000000000000000e+00,9.503725056000000393e+00
1.691116806903040768e+18,-4.872107186358099612e-03,6.090133982947624515e-03,3.288672350791717325e-02,0.000000000000000000e+00,0.000000000000000000e+00,9.503725056000000393e+00
1.691116806913040896e+18,2.436053593179049806e-03,1.218026796589524903e-02,2.557856272838002556e-02,3.065717760000000180e-01,-1.532858880000000090e-01,9.503725056000000393e+00
1.691116806923040768e+18,-1.218026796589524903e-03,9.744214372716199224e-03,2.923264311814859767e-02,1.532858880000000090e-01,-1.532858880000000090e-01,9.657010944000001373e+00
1.691116806933040896e+18,4.872107186358099612e-03,8.526187576126675188e-03,2.923264311814859767e-02,0.000000000000000000e+00,-1.532858880000000090e-01,9.503725056000000393e+00
1.691116806943040768e+18,0.000000000000000000e+00,8.526187576126675188e-03,3.166869671132764574e-02,3.065717760000000180e-01,-1.532858880000000090e-01,9.503725056000000393e+00
1.691116806953040896e+18,0.000000000000000000e+00,6.090133982947624515e-03,3.654080389768574882e-02,3.065717760000000180e-01,0.000000000000000000e+00,9.503725056000000393e+00
1.691116806963040768e+18,-6.090133982947624515e-03,7.308160779537149418e-03,3.532277710109622132e-02,1.532858880000000090e-01,-1.532858880000000090e-01,9.657010944000001373e+00
1.691116806973040896e+18,2.436053593179049806e-03,6.090133982947624515e-03,3.410475030450670075e-02,-6.131435520000000361e-01,-1.532858880000000090e-01,9.657010944000001373e+00
1.691116806983040768e+18,-7.308160779537149418e-03,1.218026796589524903e-02,4.506699147381242054e-02,3.065717760000000180e-01,-1.532858880000000090e-01,9.503725056000000393e+00
1.691116806993040896e+18,-7.308160779537149418e-03,9.744214372716199224e-03,3.166869671132764574e-02,0.000000000000000000e+00,-1.532858880000000090e-01,9.503725056000000393e+00
1.691116807003040768e+18,1.218026796589524903e-03,1.096224116930572499e-02,3.654080389768574882e-02,1.532858880000000090e-01,0.000000000000000000e+00,9.503725056000000393e+00
1.691116807013040896e+18,1.218026796589524903e-03,1.096224116930572499e-02,3.532277710109622132e-02,1.532858880000000090e-01,-1.532858880000000090e-01,9.503725056000000393e+00
1.691116807023040768e+18,-1.339829476248477480e-02,1.339829476248477480e-02,2.923264311814859767e-02,3.065717760000000180e-01,0.000000000000000000e+00,9.503725056000000393e+00
1.691116807033040640e+18,-1.218026796589524903e-03,1.339829476248477480e-02,3.166869671132764574e-02,1.532858880000000090e-01,-1.532858880000000090e-01,9.503725056000000393e+00
1.691116807043040768e+18,-1.218026796589524903e-03,6.090133982947624515e-03,2.314250913520097402e-02,1.532858880000000090e-01,0.000000000000000000e+00,9.657010944000001373e+00
1.691116807053040640e+18,7.308160779537149418e-03,9.744214372716199224e-03,2.923264311814859767e-02,0.000000000000000000e+00,0.000000000000000000e+00,9.503725056000000393e+00
1.691116807063040768e+18,0.000000000000000000e+00,1.096224116930572499e-02,3.897685749086479690e-02,3.065717760000000180e-01,0.000000000000000000e+00,9.657010944000001373e+00
1.691116807073040640e+18,4.872107186358099612e-03,6.090133982947624515e-03,2.801461632155907364e-02,3.065717760000000180e-01,0.000000000000000000e+00,9.503725056000000393e+00
1.691116807083040768e+18,-3.654080389768574709e-03,6.090133982947624515e-03,3.654080389768574882e-02,0.000000000000000000e+00,0.000000000000000000e+00,9.657010944000001373e+00
1.691116807093040640e+18,6.090133982947624515e-03,9.744214372716199224e-03,3.045066991473812518e-02,1.532858880000000090e-01,-1.532858880000000090e-01,9.503725056000000393e+00
1.691116807103040768e+18,2.436053593179049806e-03,1.218026796589524903e-02,2.801461632155907364e-02,1.532858880000000090e-01,-1.532858880000000090e-01,9.503725056000000393e+00
1.691116807113040640e+18,1.096224116930572499e-02,1.218026796589524903e-02,3.288672350791717325e-02,1.532858880000000090e-01,0.000000000000000000e+00,9.503725056000000393e+00
1.691116807123040768e+18,3.654080389768574709e-03,1.218026796589524903e-02,3.166869671132764574e-02,0.000000000000000000e+00,-3.065717760000000180e-01,9.503725056000000393e+00
1.691116807133040896e+18,-4.872107186358099612e-03,6.090133982947624515e-03,2.923264311814859767e-02,1.532858880000000090e-01,-1.532858880000000090e-01,9.657010944000001373e+00
1.691116807143040768e+18,8.526187576126675188e-03,1.948842874543239845e-02,2.192448233861144999e-02,1.532858880000000090e-01,0.000000000000000000e+00,9.503725056000000393e+00
1.691116807153040896e+18,1.218026796589524903e-03,1.218026796589524903e-03,3.532277710109622132e-02,4.598576639999999993e-01,0.000000000000000000e+00,9.503725056000000393e+00
1.691116807163040768e+18,-2.436053593179049806e-03,1.096224116930572499e-02,3.166869671132764574e-02,0.000000000000000000e+00,-1.532858880000000090e-01,9.350439168000001189e+00
1.691116807173040896e+18,-8.526187576126675188e-03,1.096224116930572499e-02,2.923264311814859767e-02,3.065717760000000180e-01,-1.532858880000000090e-01,9.503725056000000393e+00
1.691116807183040768e+18,0.000000000000000000e+00,7.308160779537149418e-03,2.923264311814859767e-02,1.532858880000000090e-01,-1.532858880000000090e-01,9.503725056000000393e+00
1.691116807193040896e+18,-2.436053593179049806e-03,4.872107186358099612e-03,3.166869671132764574e-02,1.532858880000000090e-01,0.000000000000000000e+00,9.503725056000000393e+00
1.691116807203040768e+18,9.744214372716199224e-03,1.461632155907429884e-02,2.192448233861144999e-02,1.532858880000000090e-01,-1.532858880000000090e-01,9.197153280000000208e+00
1.691116807213040896e+18,0.000000000000000000e+00,7.308160779537149418e-03,3.045066991473812518e-02,1.532858880000000090e-01,-1.532858880000000090e-01,9.503725056000000393e+00
1.691116807223040768e+18,-2.436053593179049806e-03,3.654080389768574709e-03,3.410475030450670075e-02,1.532858880000000090e-01,-1.532858880000000090e-01,9.503725056000000393e+00
1.691116807233040896e+18,-4.872107186358099612e-03,6.090133982947624515e-03,2.801461632155907364e-02,3.065717760000000180e-01,0.000000000000000000e+00,9.503725056000000393e+00
1.691116807243040768e+18,3.654080389768574709e-03,1.218026796589524903e-02,2.436053593179049806e-02,4.598576639999999993e-01,-1.532858880000000090e-01,9.657010944000001373e+00
1.691116807253040896e+18,-2.436053593179049806e-03,2.436053593179049806e-03,3.288672350791717325e-02,1.532858880000000090e-01,-1.532858880000000090e-01,9.503725056000000393e+00
1.691116807263040768e+18,1.218026796589524903e-03,1.096224116930572499e-02,2.557856272838002556e-02,1.532858880000000090e-01,-1.532858880000000090e-01,9.657010944000001373e+00
1.691116807273040896e+18,1.218026796589524903e-03,9.744214372716199224e-03,2.192448233861144999e-02,3.065717760000000180e-01,-1.532858880000000090e-01,9.503725056000000393e+00
1.691116807283040768e+18,2.436053593179049806e-03,1.705237515225335038e-02,3.288672350791717325e-02,-6.131435520000000361e-01,0.000000000000000000e+00,9.503725056000000393e+00
1.691116807293040640e+18,3.654080389768574709e-03,1.096224116930572499e-02,2.557856272838002556e-02,3.065717760000000180e-01,-3.065717760000000180e-01,9.503725056000000393e+00
1.691116807303040768e+18,-2.436053593179049806e-03,9.744214372716199224e-03,2.801461632155907364e-02,0.000000000000000000e+00,-1.532858880000000090e-01,9.657010944000001373e+00
1.691116807313040640e+18,8.526187576126675188e-03,1.218026796589524903e-03,3.288672350791717325e-02,3.065717760000000180e-01,0.000000000000000000e+00,9.657010944000001373e+00
1.691116807323040768e+18,3.654080389768574709e-03,8.526187576126675188e-03,2.801461632155907364e-02,3.065717760000000180e-01,0.000000000000000000e+00,9.657010944000001373e+00
1.691116807333040640e+18,9.744214372716199224e-03,8.526187576126675188e-03,3.654080389768574882e-02,1.532858880000000090e-01,-1.532858880000000090e-01,9.657010944000001373e+00
1.691116807343040768e+18,0.000000000000000000e+00,9.744214372716199224e-03,3.166869671132764574e-02,3.065717760000000180e-01,-1.532858880000000090e-01,9.503725056000000393e+00
1.691116807353040640e+18,-2.436053593179049806e-03,7.308160779537149418e-03,3.775883069427527633e-02,1.532858880000000090e-01,0.000000000000000000e+00,9.503725056000000393e+00
1.691116807363040768e+18,0.000000000000000000e+00,4.872107186358099612e-03,4.019488428745432440e-02,-1.532858880000000090e-01,-1.532858880000000090e-01,9.657010944000001373e+00
1.691116807373040640e+18,-2.436053593179049806e-03,9.744214372716199224e-03,2.192448233861144999e-02,1.532858880000000090e-01,0.000000000000000000e+00,9.657010944000001373e+00
1.691116807383041024e+18,7.308160779537149418e-03,1.096224116930572499e-02,3.288672350791717325e-02,0.000000000000000000e+00,-1.532858880000000090e-01,9.503725056000000393e+00
1.691116807393040896e+18,1.218026796589524903e-03,1.339829476248477480e-02,3.410475030450670075e-02,1.532858880000000090e-01,0.000000000000000000e+00,9.657010944000001373e+00
1.691116807403040768e+18,3.654080389768574709e-03,4.872107186358099612e-03,3.288672350791717325e-02,-1.532858880000000090e-01,0.000000000000000000e+00,9.503725056000000393e+00
1.691116807413040896e+18,-1.218026796589524903e-03,7.308160779537149418e-03,2.679658952496954960e-02,1.532858880000000090e-01,0.000000000000000000e+00,9.503725056000000393e+00
1.691116807423040768e+18,1.218026796589524903e-03,3.654080389768574709e-03,3.410475030450670075e-02,3.065717760000000180e-01,0.000000000000000000e+00,9.657010944000001373e+00
1.691116807433040896e+18,-1.218026796589524903e-03,1.218026796589524903e-02,2.314250913520097402e-02,1.532858880000000090e-01,-3.065717760000000180e-01,9.657010944000001373e+00
1.691116807443040768e+18,-4.872107186358099612e-03,1.948842874543239845e-02,3.288672350791717325e-02,3.065717760000000180e-01,0.000000000000000000e+00,9.503725056000000393e+00
1.691116807453040896e+18,4.872107186358099612e-03,8.526187576126675188e-03,3.045066991473812518e-02,1.532858880000000090e-01,-1.532858880000000090e-01,9.503725056000000393e+00
1.691116807463040768e+18,-3.654080389768574709e-03,4.872107186358099612e-03,3.288672350791717325e-02,1.532858880000000090e-01,0.000000000000000000e+00,9.657010944000001373e+00
1.691116807473040896e+18,-4.872107186358099612e-03,1.339829476248477480e-02,4.019488428745432440e-02,3.065717760000000180e-01,-1.532858880000000090e-01,9.503725056000000393e+00
1.691116807483040768e+18,9.744214372716199224e-03,1.827040194884287441e-02,3.288672350791717325e-02,4.598576639999999993e-01,-1.532858880000000090e-01,9.657010944000001373e+00
1.691116807493040896e+18,-4.872107186358099612e-03,8.526187576126675188e-03,3.166869671132764574e-02,3.065717760000000180e-01,-1.532858880000000090e-01,9.503725056000000393e+00
1.691116807503040768e+18,-8.526187576126675188e-03,1.583434835566382287e-02,3.045066991473812518e-02,1.532858880000000090e-01,0.000000000000000000e+00,9.503725056000000393e+00
1.691116807513040896e+18,3.654080389768574709e-03,2.436053593179049806e-03,3.166869671132764574e-02,3.065717760000000180e-01,-1.532858880000000090e-01,9.503725056000000393e+00
1.691116807523040768e+18,2.436053593179049806e-03,1.583434835566382287e-02,3.045066991473812518e-02,3.065717760000000180e-01,0.000000000000000000e+00,9.657010944000001373e+00
1.691116807533040640e+18,9.744214372716199224e-03,7.308160779537149418e-03,2.801461632155907364e-02,-1.532858880000000090e-01,0.000000000000000000e+00,9.810296832000000578e+00
1.691116807543040768e+18,-1.218026796589524903e-03,1.218026796589524903e-02,3.410475030450670075e-02,0.000000000000000000e+00,-1.532858880000000090e-01,9.503725056000000393e+00
1.691116807553040640e+18,4.872107186358099612e-03,1.218026796589524903e-02,2.923264311814859767e-02,3.065717760000000180e-01,-1.532858880000000090e-01,9.657010944000001373e+00
1.691116807563040768e+18,-4.872107186358099612e-03,1.339829476248477480e-02,2.801461632155907364e-02,4.598576639999999993e-01,0.000000000000000000e+00,9.503725056000000393e+00
1.691116807573040640e+18,-6.090133982947624515e-03,8.526187576126675188e-03,3.166869671132764574e-02,1.532858880000000090e-01,0.000000000000000000e+00,9.657010944000001373e+00
1.691116807583040768e+18,0.000000000000000000e+00,1.461632155907429884e-02,2.923264311814859767e-02,3.065717760000000180e-01,-1.532858880000000090e-01,9.657010944000001373e+00
1.691116807593040640e+18,6.090133982947624515e-03,1.583434835566382287e-02,2.801461632155907364e-02,3.065717760000000180e-01,0.000000000000000000e+00,9.657010944000001373e+00
1.691116807603040768e+18,2.436053593179049806e-03,1.096224116930572499e-02,2.314250913520097402e-02,3.065717760000000180e-01,-1.532858880000000090e-01,9.657010944000001373e+00
1.691116807613040640e+18,2.436053593179049806e-03,7.308160779537149418e-03,2.679658952496954960e-02,0.000000000000000000e+00,-1.532858880000000090e-01,9.657010944000001373e+00
1.691116807623040768e+18,-6.090133982947624515e-03,1.339829476248477480e-02,3.654080389768574882e-02,4.598576639999999993e-01,-1.532858880000000090e-01,9.503725056000000393e+00
1.691116807633040896e+18,-1.218026796589524903e-03,8.526187576126675188e-03,3.654080389768574882e-02,1.532858880000000090e-01,-1.532858880000000090e-01,9.503725056000000393e+00
1.691116807643040768e+18,-2.436053593179049806e-03,7.308160779537149418e-03,3.654080389768574882e-02,3.065717760000000180e-01,0.000000000000000000e+00,9.350439168000001189e+00
1.691116807653040896e+18,-1.218026796589524903e-03,1.339829476248477480e-02,3.045066991473812518e-02,1.532858880000000090e-01,-1.532858880000000090e-01,9.503725056000000393e+00
1.691116807663040768e+18,-1.218026796589524903e-03,1.218026796589524903e-02,3.288672350791717325e-02,0.000000000000000000e+00,0.000000000000000000e+00,9.657010944000001373e+00
1.691116807673040896e+18,-1.218026796589524903e-03,1.096224116930572499e-02,2.557856272838002556e-02,4.598576639999999993e-01,-1.532858880000000090e-01,9.503725056000000393e+00
1.691116807683040768e+18,1.218026796589524903e-03,4.872107186358099612e-03,4.019488428745432440e-02,6.131435520000000361e-01,-1.532858880000000090e-01,9.657010944000001373e+00
1.691116807693040896e+18,0.000000000000000000e+00,9.744214372716199224e-03,3.775883069427527633e-02,1.532858880000000090e-01,0.000000000000000000e+00,9.503725056000000393e+00
1.691116807703040768e+18,4.872107186358099612e-03,6.090133982947624515e-03,3.532277710109622132e-02,1.532858880000000090e-01,-1.532858880000000090e-01,9.503725056000000393e+00
1.691116807713040896e+18,2.436053593179049806e-03,8.526187576126675188e-03,3.166869671132764574e-02,3.065717760000000180e-01,-1.532858880000000090e-01,9.657010944000001373e+00
1.691116807723040768e+18,-6.090133982947624515e-03,3.654080389768574709e-03,2.923264311814859767e-02,1.532858880000000090e-01,-1.532858880000000090e-01,9.657010944000001373e+00
1.691116807733040896e+18,-4.872107186358099612e-03,1.339829476248477480e-02,3.532277710109622132e-02,0.000000000000000000e+00,-1.532858880000000090e-01,9.657010944000001373e+00
1.691116807743040768e+18,9.744214372716199224e-03,1.218026796589524903e-02,1.827040194884287441e-02,1.532858880000000090e-01,-3.065717760000000180e-01,9.657010944000001373e+00
1.691116807753040896e+18,4.872107186358099612e-03,1.096224116930572499e-02,2.923264311814859767e-02,3.065717760000000180e-01,0.000000000000000000e+00,9.657010944000001373e+00
1.691116807763040768e+18,0.000000000000000000e+00,9.744214372716199224e-03,3.410475030450670075e-02,1.532858880000000090e-01,-1.532858880000000090e-01,9.503725056000000393e+00
1.691116807773040896e+18,-2.436053593179049806e-03,1.218026796589524903e-02,2.557856272838002556e-02,0.000000000000000000e+00,0.000000000000000000e+00,9.503725056000000393e+00
1.691116807783040768e+18,6.090133982947624515e-03,1.218026796589524903e-02,3.288672350791717325e-02,0.000000000000000000e+00,-1.532858880000000090e-01,9.503725056000000393e+00
1.691116807793040640e+18,8.526187576126675188e-03,9.744214372716199224e-03,3.166869671132764574e-02,-1.532858880000000090e-01,0.000000000000000000e+00,9.503725056000000393e+00
1.691116807803040768e+18,-1.218026796589524903e-03,8.526187576126675188e-03,3.166869671132764574e-02,1.532858880000000090e-01,-1.532858880000000090e-01,9.503725056000000393e+00
1.691116807813040640e+18,3.654080389768574709e-03,1.827040194884287441e-02,2.070645554202192595e-02,1.532858880000000090e-01,-1.532858880000000090e-01,9.503725056000000393e+00
1.691116807823040768e+18,0.000000000000000000e+00,1.218026796589524903e-02,3.410475030450670075e-02,1.532858880000000090e-01,0.000000000000000000e+00,9.657010944000001373e+00
1.691116807833040640e+18,1.218026796589524903e-03,1.948842874543239845e-02,2.679658952496954960e-02,1.532858880000000090e-01,-1.532858880000000090e-01,9.657010944000001373e+00
1.691116807843040768e+18,-3.654080389768574709e-03,2.192448233861144999e-02,2.314250913520097402e-02,3.065717760000000180e-01,-1.532858880000000090e-01,9.657010944000001373e+00
1.691116807853040640e+18,-1.218026796589524903e-02,1.339829476248477480e-02,2.923264311814859767e-02,1.532858880000000090e-01,0.000000000000000000e+00,9.657010944000001373e+00
1.691116807863040768e+18,4.872107186358099612e-03,1.096224116930572499e-02,2.923264311814859767e-02,1.532858880000000090e-01,-1.532858880000000090e-01,9.503725056000000393e+00
1.691116807873040640e+18,-1.339829476248477480e-02,7.308160779537149418e-03,4.141291108404385191e-02,1.532858880000000090e-01,0.000000000000000000e+00,9.503725056000000393e+00
1.691116807883041024e+18,-1.218026796589524903e-03,1.827040194884287441e-02,3.166869671132764574e-02,3.065717760000000180e-01,-1.532858880000000090e-01,9.810296832000000578e+00
1.691116807893040896e+18,-4.872107186358099612e-03,7.308160779537149418e-03,2.801461632155907364e-02,3.065717760000000180e-01,-1.532858880000000090e-01,9.503725056000000393e+00
1.691116807903040768e+18,7.308160779537149418e-03,8.526187576126675188e-03,3.897685749086479690e-02,1.532858880000000090e-01,-1.532858880000000090e-01,9.657010944000001373e+00
1.691116807913040896e+18,0.000000000000000000e+00,1.705237515225335038e-02,3.166869671132764574e-02,1.532858880000000090e-01,-1.532858880000000090e-01,9.503725056000000393e+00
1.691116807923040768e+18,4.872107186358099612e-03,1.096224116930572499e-02,2.557856272838002556e-02,1.532858880000000090e-01,-1.532858880000000090e-01,9.657010944000001373e+00
1.691116807933040896e+18,1.218026796589524903e-03,6.090133982947624515e-03,3.288672350791717325e-02,3.065717760000000180e-01,-1.532858880000000090e-01,9.503725056000000393e+00
1.691116807943040768e+18,1.218026796589524903e-03,8.526187576126675188e-03,2.314250913520097402e-02,1.532858880000000090e-01,-1.532858880000000090e-01,9.503725056000000393e+00
1.691116807953040896e+18,0.000000000000000000e+00,8.526187576126675188e-03,2.923264311814859767e-02,1.532858880000000090e-01,0.000000000000000000e+00,9.503725056000000393e+00
1.691116807963040768e+18,3.654080389768574709e-03,8.526187576126675188e-03,3.166869671132764574e-02,0.000000000000000000e+00,0.000000000000000000e+00,9.503725056000000393e+00
1.691116807973040896e+18,8.526187576126675188e-03,1.339829476248477480e-02,3.410475030450670075e-02,3.065717760000000180e-01,-1.532858880000000090e-01,9.503725056000000393e+00
1.691116807983040768e+18,0.000000000000000000e+00,9.744214372716199224e-03,3.045066991473812518e-02,4.598576639999999993e-01,0.000000000000000000e+00,9.657010944000001373e+00
1.691116807993040896e+18,4.872107186358099612e-03,1.339829476248477480e-02,2.801461632155907364e-02,3.065717760000000180e-01,0.000000000000000000e+00,9.657010944000001373e+00
1.691116808003040768e+18,-1.218026796589524903e-03,1.218026796589524903e-02,3.532277710109622132e-02,1.532858880000000090e-01,0.000000000000000000e+00,9.657010944000001373e+00
1.691116808013040896e+18,7.308160779537149418e-03,4.872107186358099612e-03,2.923264311814859767e-02,3.065717760000000180e-01,0.000000000000000000e+00,9.657010944000001373e+00
1.691116808023040768e+18,-8.526187576126675188e-03,7.308160779537149418e-03,3.166869671132764574e-02,7.664294400000000174e-01,-1.532858880000000090e-01,9.503725056000000393e+00
1.691116808033040640e+18,0.000000000000000000e+00,2.436053593179049806e-03,2.923264311814859767e-02,0.000000000000000000e+00,0.000000000000000000e+00,9.657010944000001373e+00
1.691116808043040768e+18,0.000000000000000000e+00,1.218026796589524903e-02,3.045066991473812518e-02,3.065717760000000180e-01,-1.532858880000000090e-01,9.503725056000000393e+00
1.691116808053040640e+18,1.218026796589524903e-03,9.744214372716199224e-03,2.923264311814859767e-02,1.532858880000000090e-01,0.000000000000000000e+00,9.657010944000001373e+00
1.691116808063040768e+18,1.218026796589524903e-03,1.339829476248477480e-02,2.436053593179049806e-02,0.000000000000000000e+00,0.000000000000000000e+00,9.503725056000000393e+00
1.691116808073040640e+18,-4.872107186358099612e-03,8.526187576126675188e-03,2.192448233861144999e-02,1.532858880000000090e-01,-1.532858880000000090e-01,9.657010944000001373e+00
1.691116808083040768e+18,1.096224116930572499e-02,1.218026796589524903e-02,3.654080389768574882e-02,4.598576639999999993e-01,0.000000000000000000e+00,9.503725056000000393e+00
1.691116808093040640e+18,7.308160779537149418e-03,7.308160779537149418e-03,2.801461632155907364e-02,0.000000000000000000e+00,0.000000000000000000e+00,9.503725056000000393e+00
1.691116808103040768e+18,2.436053593179049806e-03,1.948842874543239845e-02,2.801461632155907364e-02,1.532858880000000090e-01,-1.532858880000000090e-01,9.657010944000001373e+00
1.691116808113040640e+18,-2.436053593179049806e-03,7.308160779537149418e-03,3.532277710109622132e-02,3.065717760000000180e-01,-3.065717760000000180e-01,9.503725056000000393e+00
1.691116808123040768e+18,7.308160779537149418e-03,4.872107186358099612e-03,2.801461632155907364e-02,1.532858880000000090e-01,0.000000000000000000e+00,9.657010944000001373e+00
1.691116808133040896e+18,1.218026796589524903e-03,8.526187576126675188e-03,3.410475030450670075e-02,3.065717760000000180e-01,0.000000000000000000e+00,9.657010944000001373e+00
1.691116808143040768e+18,2.436053593179049806e-03,1.096224116930572499e-02,3.288672350791717325e-02,3.065717760000000180e-01,-1.532858880000000090e-01,9.503725056000000393e+00
1.691116808153040896e+18,6.090133982947624515e-03,1.461632155907429884e-02,2.801461632155907364e-02,1.532858880000000090e-01,0.000000000000000000e+00,9.503725056000000393e+00
1.691116808163040768e+18,-9.744214372716199224e-03,7.308160779537149418e-03,2.436053593179049806e-02,1.532858880000000090e-01,-1.532858880000000090e-01,9.657010944000001373e+00
1.691116808173040896e+18,1.218026796589524903e-03,1.096224116930572499e-02,3.045066991473812518e-02,4.598576639999999993e-01,0.000000000000000000e+00,9.503725056000000393e+00
1.691116808183040768e+18,-2.436053593179049806e-03,1.096224116930572499e-02,2.436053593179049806e-02,1.532858880000000090e-01,-1.532858880000000090e-01,9.657010944000001373e+00
1.691116808193040896e+18,1.218026796589524903e-02,1.948842874543239845e-02,2.679658952496954960e-02,0.000000000000000000e+00,-1.532858880000000090e-01,9.657010944000001373e+00
1.691116808203040768e+18,-1.218026796589524903e-03,1.096224116930572499e-02,2.436053593179049806e-02,1.532858880000000090e-01,0.000000000000000000e+00,9.503725056000000393e+00
1.691116808213040896e+18,1.096224116930572499e-02,8.526187576126675188e-03,2.801461632155907364e-02,-1.532858880000000090e-01,0.000000000000000000e+00,9.503725056000000393e+00
1.691116808223040768e+18,6.090133982947624515e-03,8.526187576126675188e-03,2.192448233861144999e-02,3.065717760000000180e-01,-1.532858880000000090e-01,9.503725056000000393e+00
1.691116808233040896e+18,3.654080389768574709e-03,4.872107186358099612e-03,3.166869671132764574e-02,3.065717760000000180e-01,-1.532858880000000090e-01,9.503725056000000393e+00
1.691116808243040768e+18,0.000000000000000000e+00,7.308160779537149418e-03,3.288672350791717325e-02,3.065717760000000180e-01,0.000000000000000000e+00,9.503725056000000393e+00
1.691116808253040896e+18,-2.436053593179049806e-03,8.526187576126675188e-03,3.288672350791717325e-02,0.000000000000000000e+00,-3.065717760000000180e-01,9.350439168000001189e+00
1.691116808263040768e+18,2.436053593179049806e-03,6.090133982947624515e-03,2.192448233861144999e-02,3.065717760000000180e-01,-1.532858880000000090e-01,9.657010944000001373e+00
1.691116808273040896e+18,-3.654080389768574709e-03,1.096224116930572499e-02,3.654080389768574882e-02,3.065717760000000180e-01,-1.532858880000000090e-01,9.503725056000000393e+00
1.691116808283040768e+18,-1.218026796589524903e-03,8.526187576126675188e-03,3.045066991473812518e-02,3.065717760000000180e-01,0.000000000000000000e+00,9.503725056000000393e+00
1.691116808293040640e+18,3.654080389768574709e-03,8.526187576126675188e-03,2.679658952496954960e-02,1.532858880000000090e-01,0.000000000000000000e+00,9.503725056000000393e+00
1.691116808303040768e+18,-4.872107186358099612e-03,4.872107186358099612e-03,3.654080389768574882e-02,3.065717760000000180e-01,0.000000000000000000e+00,9.503725056000000393e+00
1.691116808313040640e+18,-2.436053593179049806e-03,8.526187576126675188e-03,2.923264311814859767e-02,1.532858880000000090e-01,-1.532858880000000090e-01,9.657010944000001373e+00
1.691116808323040768e+18,4.872107186358099612e-03,1.096224116930572499e-02,3.288672350791717325e-02,0.000000000000000000e+00,0.000000000000000000e+00,9.657010944000001373e+00
1.691116808333040640e+18,1.218026796589524903e-03,1.218026796589524903e-02,2.557856272838002556e-02,1.532858880000000090e-01,0.000000000000000000e+00,9.503725056000000393e+00
1.691116808343040768e+18,7.308160779537149418e-03,8.526187576126675188e-03,2.801461632155907364e-02,3.065717760000000180e-01,-1.532858880000000090e-01,9.503725056000000393e+00
1.691116808353040640e+18,7.308160779537149418e-03,1.218026796589524903e-02,3.166869671132764574e-02,1.532858880000000090e-01,-1.532858880000000090e-01,9.657010944000001373e+00
1.691116808363040768e+18,-3.654080389768574709e-03,1.096224116930572499e-02,2.801461632155907364e-02,3.065717760000000180e-01,-3.065717760000000180e-01,9.657010944000001373e+00
1.691116808373040640e+18,4.872107186358099612e-03,6.090133982947624515e-03,3.045066991473812518e-02,4.598576639999999993e-01,-1.532858880000000090e-01,9.503725056000000393e+00
1.691116808383041024e+18,7.308160779537149418e-03,9.744214372716199224e-03,2.923264311814859767e-02,0.000000000000000000e+00,-1.532858880000000090e-01,9.503725056000000393e+00
1.691116808393040896e+18,4.872107186358099612e-03,8.526187576126675188e-03,3.045066991473812518e-02,3.065717760000000180e-01,-1.532858880000000090e-01,9.503725056000000393e+00
1.691116808403040768e+18,4.872107186358099612e-03,1.218026796589524903e-02,2.314250913520097402e-02,1.532858880000000090e-01,-1.532858880000000090e-01,9.657010944000001373e+00
1.691116808413040896e+18,1.218026796589524903e-03,6.090133982947624515e-03,3.654080389768574882e-02,-1.532858880000000090e-01,-1.532858880000000090e-01,9.503725056000000393e+00
1.691116808423040768e+18,-4.872107186358099612e-03,6.090133982947624515e-03,2.923264311814859767e-02,1.532858880000000090e-01,0.000000000000000000e+00,9.503725056000000393e+00
1.691116808433040896e+18,2.436053593179049806e-03,8.526187576126675188e-03,3.410475030450670075e-02,3.065717760000000180e-01,0.000000000000000000e+00,9.657010944000001373e+00
1.691116808443040768e+18,9.744214372716199224e-03,4.872107186358099612e-03,2.923264311814859767e-02,1.532858880000000090e-01,-1.532858880000000090e-01,9.657010944000001373e+00
1.691116808453040896e+18,-1.218026796589524903e-03,8.526187576126675188e-03,3.045066991473812518e-02,3.065717760000000180e-01,0.000000000000000000e+00,9.657010944000001373e+00
1.691116808463040768e+18,-2.436053593179049806e-03,1.218026796589524903e-02,3.166869671132764574e-02,3.065717760000000180e-01,-1.532858880000000090e-01,9.503725056000000393e+00
1.691116808473040896e+18,-1.461632155907429884e-02,1.096224116930572499e-02,3.775883069427527633e-02,4.598576639999999993e-01,0.000000000000000000e+00,9.503725056000000393e+00
1.691116808483040768e+18,-1.218026796589524903e-03,1.218026796589524903e-02,3.410475030450670075e-02,1.532858880000000090e-01,0.000000000000000000e+00,9.503725056000000393e+00
1.691116808493040896e+18,-3.654080389768574709e-03,2.436053593179049806e-03,4.141291108404385191e-02,0.000000000000000000e+00,0.000000000000000000e+00,9.503725056000000393e+00
1.691116808503040768e+18,7.308160779537149418e-03,9.744214372716199224e-03,2.923264311814859767e-02,1.532858880000000090e-01,0.000000000000000000e+00,9.503725056000000393e+00
1.691116808513040896e+18,3.654080389768574709e-03,6.090133982947624515e-03,2.679658952496954960e-02,0.000000000000000000e+00,0.000000000000000000e+00,9.657010944000001373e+00
1.691116808523040768e+18,-9.744214372716199224e-03,7.308160779537149418e-03,3.045066991473812518e-02,3.065717760000000180e-01,0.000000000000000000e+00,9.503725056000000393e+00
1.691116808533040640e+18,-1.218026796589524903e-03,7.308160779537149418e-03,2.679658952496954960e-02,1.532858880000000090e-01,0.000000000000000000e+00,9.503725056000000393e+00
1.691116808543040768e+18,-4.872107186358099612e-03,1.339829476248477480e-02,3.288672350791717325e-02,1.532858880000000090e-01,-1.532858880000000090e-01,9.657010944000001373e+00
1.691116808553040640e+18,0.000000000000000000e+00,1.096224116930572499e-02,2.923264311814859767e-02,3.065717760000000180e-01,0.000000000000000000e+00,9.657010944000001373e+00
1.691116808563040768e+18,3.654080389768574709e-03,1.705237515225335038e-02,2.923264311814859767e-02,0.000000000000000000e+00,0.000000000000000000e+00,9.657010944000001373e+00
1.691116808573040640e+18,7.308160779537149418e-03,1.339829476248477480e-02,2.923264311814859767e-02,1.532858880000000090e-01,-1.532858880000000090e-01,9.503725056000000393e+00
1.691116808583040768e+18,-4.872107186358099612e-03,9.744214372716199224e-03,3.166869671132764574e-02,4.598576639999999993e-01,-1.532858880000000090e-01,9.503725056000000393e+00
1.691116808593040640e+18,3.654080389768574709e-03,3.654080389768574709e-03,3.166869671132764574e-02,3.065717760000000180e-01,0.000000000000000000e+00,9.657010944000001373e+00
1.691116808603040768e+18,-1.461632155907429884e-02,1.218026796589524903e-02,3.288672350791717325e-02,1.532858880000000090e-01,-1.532858880000000090e-01,9.503725056000000393e+00
1.691116808613040640e+18,7.308160779537149418e-03,2.436053593179049806e-03,3.410475030450670075e-02,3.065717760000000180e-01,-1.532858880000000090e-01,9.657010944000001373e+00
1.691116808623040768e+18,1.218026796589524903e-03,9.744214372716199224e-03,3.532277710109622132e-02,3.065717760000000180e-01,-1.532858880000000090e-01,9.503725056000000393e+00
1.691116808633040896e+18,0.000000000000000000e+00,1.096224116930572499e-02,3.288672350791717325e-02,3.065717760000000180e-01,0.000000000000000000e+00,9.503725056000000393e+00
1.691116808643040768e+18,-7.308160779537149418e-03,7.308160779537149418e-03,2.923264311814859767e-02,1.532858880000000090e-01,0.000000000000000000e+00,9.657010944000001373e+00
1.691116808653040896e+18,-4.872107186358099612e-03,9.744214372716199224e-03,3.045066991473812518e-02,1.532858880000000090e-01,0.000000000000000000e+00,9.503725056000000393e+00
1.691116808663040768e+18,-2.436053593179049806e-03,1.339829476248477480e-02,2.070645554202192595e-02,1.532858880000000090e-01,-1.532858880000000090e-01,9.503725056000000393e+00
1.691116808673040896e+18,1.096224116930572499e-02,1.096224116930572499e-02,2.436053593179049806e-02,3.065717760000000180e-01,-1.532858880000000090e-01,9.657010944000001373e+00
1.691116808683040768e+18,-1.218026796589524903e-03,9.744214372716199224e-03,2.801461632155907364e-02,4.598576639999999993e-01,-1.532858880000000090e-01,9.503725056000000393e+00
1.691116808693040896e+18,-1.218026796589524903e-03,4.872107186358099612e-03,3.532277710109622132e-02,1.532858880000000090e-01,0.000000000000000000e+00,9.503725056000000393e+00
1.691116808703040768e+18,-1.218026796589524903e-03,0.000000000000000000e+00,3.288672350791717325e-02,0.000000000000000000e+00,-1.532858880000000090e-01,9.657010944000001373e+00
1.691116808713040896e+18,1.218026796589524903e-03,1.339829476248477480e-02,3.410475030450670075e-02,0.000000000000000000e+00,0.000000000000000000e+00,9.657010944000001373e+00
1.691116808723040768e+18,3.654080389768574709e-03,6.090133982947624515e-03,3.288672350791717325e-02,4.598576639999999993e-01,0.000000000000000000e+00,9.657010944000001373e+00
1.691116808733040896e+18,2.436053593179049806e-03,1.096224116930572499e-02,2.801461632155907364e-02,1.532858880000000090e-01,-1.532858880000000090e-01,9.503725056000000393e+00
1.691116808743040768e+18,7.308160779537149418e-03,1.218026796589524903e-02,2.070645554202192595e-02,1.532858880000000090e-01,0.000000000000000000e+00,9.503725056000000393e+00
1.691116808753040896e+18,7.308160779537149418e-03,1.096224116930572499e-02,3.410475030450670075e-02,3.065717760000000180e-01,-1.532858880000000090e-01,9.503725056000000393e+00
1.691116808763040768e+18,-1.218026796589524903e-03,8.526187576126675188e-03,3.166869671132764574e-02,3.065717760000000180e-01,-1.532858880000000090e-01,9.503725056000000393e+00
1.691116808773040896e+18,-2.436053593179049806e-03,1.461632155907429884e-02,2.801461632155907364e-02,1.532858880000000090e-01,-1.532858880000000090e-01,9.503725056000000393e+00
1.691116808783040768e+18,-4.872107186358099612e-03,3.654080389768574709e-03,3.166869671132764574e-02,1.532858880000000090e-01,0.000000000000000000e+00,9.657010944000001373e+00
1.691116808793040640e+18,3.654080389768574709e-03,1.218026796589524903e-02,3.166869671132764574e-02,3.065717760000000180e-01,-1.532858880000000090e-01,9.503725056000000393e+00
1.691116808803040768e+18,1.218026796589524903e-03,7.308160779537149418e-03,3.045066991473812518e-02,1.532858880000000090e-01,0.000000000000000000e+00,9.503725056000000393e+00
1.691116808813040640e+18,1.461632155907429884e-02,1.218026796589524903e-02,2.436053593179049806e-02,1.532858880000000090e-01,1.532858880000000090e-01,9.503725056000000393e+00
1.691116808823040768e+18,-1.218026796589524903e-03,8.526187576126675188e-03,3.045066991473812518e-02,1.532858880000000090e-01,-1.532858880000000090e-01,9.657010944000001373e+00
1.691116808833040640e+18,9.744214372716199224e-03,2.436053593179049806e-03,2.801461632155907364e-02,1.532858880000000090e-01,-1.532858880000000090e-01,9.350439168000001189e+00
1.691116808843040768e+18,1.218026796589524903e-03,9.744214372716199224e-03,3.532277710109622132e-02,3.065717760000000180e-01,-1.532858880000000090e-01,9.657010944000001373e+00
1.691116808853040640e+18,4.872107186358099612e-03,1.096224116930572499e-02,3.288672350791717325e-02,1.532858880000000090e-01,-1.532858880000000090e-01,9.503725056000000393e+00
1.691116808863040768e+18,0.000000000000000000e+00,4.872107186358099612e-03,3.410475030450670075e-02,0.000000000000000000e+00,-1.532858880000000090e-01,9.503725056000000393e+00
1.691116808873040640e+18,6.090133982947624515e-03,9.744214372716199224e-03,3.166869671132764574e-02,-1.532858880000000090e-01,-1.532858880000000090e-01,9.503725056000000393e+00
1.691116808883041024e+18,-9.744214372716199224e-03,1.339829476248477480e-02,2.557856272838002556e-02,0.000000000000000000e+00,0.000000000000000000e+00,9.503725056000000393e+00
1.691116808893040896e+18,-2.436053593179049806e-03,1.096224116930572499e-02,2.923264311814859767e-02,3.065717760000000180e-01,0.000000000000000000e+00,9.657010944000001373e+00
1.691116808903040768e+18,-1.461632155907429884e-02,1.218026796589524903e-03,2.436053593179049806e-02,3.065717760000000180e-01,-3.065717760000000180e-01,9.657010944000001373e+00
1.691116808913040896e+18,-2.436053593179049806e-03,1.705237515225335038e-02,2.679658952496954960e-02,3.065717760000000180e-01,-1.532858880000000090e-01,9.657010944000001373e+00
1.691116808923040768e+18,-2.436053593179049806e-03,1.096224116930572499e-02,3.045066991473812518e-02,0.000000000000000000e+00,0.000000000000000000e+00,9.503725056000000393e+00
1.691116808933040896e+18,-2.436053593179049806e-03,9.744214372716199224e-03,3.045066991473812518e-02,3.065717760000000180e-01,-1.532858880000000090e-01,9.657010944000001373e+00
1.691116808943040768e+18,2.436053593179049806e-03,6.090133982947624515e-03,2.923264311814859767e-02,1.532858880000000090e-01,-1.532858880000000090e-01,9.503725056000000393e+00
1.691116808953040896e+18,1.218026796589524903e-03,1.218026796589524903e-02,2.557856272838002556e-02,0.000000000000000000e+00,0.000000000000000000e+00,9.503725056000000393e+00
1.691116808963040768e+18,-2.436053593179049806e-03,1.461632155907429884e-02,3.410475030450670075e-02,3.065717760000000180e-01,-1.532858880000000090e-01,9.503725056000000393e+00
1.691116808973040896e+18,2.436053593179049806e-03,1.218026796589524903e-02,2.923264311814859767e-02,1.532858880000000090e-01,-1.532858880000000090e-01,9.657010944000001373e+00
1.691116808983040768e+18,-6.090133982947624515e-03,1.096224116930572499e-02,3.166869671132764574e-02,1.532858880000000090e-01,-3.065717760000000180e-01,9.657010944000001373e+00
1.691116808993040896e+18,3.654080389768574709e-03,1.218026796589524903e-02,4.019488428745432440e-02,7.664294400000000174e-01,-1.532858880000000090e-01,9.810296832000000578e+00
1.691116809003040768e+18,-7.308160779537149418e-03,7.308160779537149418e-03,3.288672350791717325e-02,3.065717760000000180e-01,-1.532858880000000090e-01,9.657010944000001373e+00
1.691116809013040896e+18,1.218026796589524903e-03,4.872107186358099612e-03,3.775883069427527633e-02,3.065717760000000180e-01,-1.532858880000000090e-01,9.657010944000001373e+00
1.691116809023040768e+18,-2.436053593179049806e-03,0.000000000000000000e+00,2.923264311814859767e-02,0.000000000000000000e+00,0.000000000000000000e+00,9.503725056000000393e+00
1.691116809033040640e+18,1.218026796589524903e-02,2.436053593179049806e-03,2.923264311814859767e-02,1.532858880000000090e-01,0.000000000000000000e+00,9.503725056000000393e+00
1.691116809043040768e+18,4.872107186358099612e-03,1.096224116930572499e-02,3.410475030450670075e-02,0.000000000000000000e+00,-1.532858880000000090e-01,9.503725056000000393e+00
1.691116809053040640e+18,6.090133982947624515e-03,3.654080389768574709e-03,3.045066991473812518e-02,3.065717760000000180e-01,-1.532858880000000090e-01,9.503725056000000393e+00
1.691116809063040768e+18,-1.218026796589524903e-03,6.090133982947624515e-03,2.679658952496954960e-02,1.532858880000000090e-01,0.000000000000000000e+00,9.503725056000000393e+00
1.691116809073040640e+18,-6.090133982947624515e-03,1.096224116930572499e-02,3.045066991473812518e-02,1.532858880000000090e-01,0.000000000000000000e+00,9.657010944000001373e+00
1.691116809083040768e+18,0.000000000000000000e+00,7.308160779537149418e-03,3.775883069427527633e-02,0.000000000000000000e+00,0.000000000000000000e+00,9.503725056000000393e+00
1.691116809093040640e+18,0.000000000000000000e+00,1.339829476248477480e-02,3.045066991473812518e-02,1.532858880000000090e-01,-1.532858880000000090e-01,9.503725056000000393e+00
1.691116809103040768e+18,-2.436053593179049806e-03,1.096224116930572499e-02,3.166869671132764574e-02,1.532858880000000090e-01,-1.532858880000000090e-01,9.657010944000001373e+00
1.691116809113040640e+18,-1.218026796589524903e-02,9.744214372716199224e-03,2.801461632155907364e-02,1.532858880000000090e-01,0.000000000000000000e+00,9.503725056000000393e+00
1.691116809123040768e+18,7.308160779537149418e-03,1.705237515225335038e-02,2.923264311814859767e-02,0.000000000000000000e+00,-1.532858880000000090e-01,9.657010944000001373e+00
1.691116809133040896e+18,-6.090133982947624515e-03,1.461632155907429884e-02,3.288672350791717325e-02,0.000000000000000000e+00,0.000000000000000000e+00,9.503725056000000393e+00
1.691116809143040768e+18,3.654080389768574709e-03,4.872107186358099612e-03,2.923264311814859767e-02,1.532858880000000090e-01,-1.532858880000000090e-01,9.657010944000001373e+00
1.691116809153040896e+18,-1.218026796589524903e-03,3.654080389768574709e-03,3.410475030450670075e-02,0.000000000000000000e+00,-1.532858880000000090e-01,9.503725056000000393e+00
1.691116809163040768e+18,-6.090133982947624515e-03,1.096224116930572499e-02,2.923264311814859767e-02,3.065717760000000180e-01,-3.065717760000000180e-01,9.657010944000001373e+00
1.691116809173040896e+18,1.218026796589524903e-02,1.339829476248477480e-02,3.654080389768574882e-02,0.000000000000000000e+00,0.000000000000000000e+00,9.657010944000001373e+00
1.691116809183040768e+18,-7.308160779537149418e-03,9.744214372716199224e-03,3.654080389768574882e-02,0.000000000000000000e+00,-1.532858880000000090e-01,9.657010944000001373e+00
1.691116809193040896e+18,-8.526187576126675188e-03,1.461632155907429884e-02,3.045066991473812518e-02,1.532858880000000090e-01,0.000000000000000000e+00,9.657010944000001373e+00
1.691116809203040768e+18,-7.308160779537149418e-03,9.744214372716199224e-03,2.314250913520097402e-02,1.532858880000000090e-01,-1.532858880000000090e-01,9.503725056000000393e+00
1.691116809213040896e+18,0.000000000000000000e+00,4.872107186358099612e-03,3.045066991473812518e-02,0.000000000000000000e+00,0.000000000000000000e+00,9.503725056000000393e+00
1.691116809223040768e+18,-4.872107186358099612e-03,6.090133982947624515e-03,3.410475030450670075e-02,1.532858880000000090e-01,0.000000000000000000e+00,9.503725056000000393e+00
1.691116809233040896e+18,6.090133982947624515e-03,9.744214372716199224e-03,3.410475030450670075e-02,0.000000000000000000e+00,0.000000000000000000e+00,9.350439168000001189e+00
1.691116809243040768e+18,-4.872107186358099612e-03,3.654080389768574709e-03,3.045066991473812518e-02,1.532858880000000090e-01,0.000000000000000000e+00,9.503725056000000393e+00
1.691116809253040896e+18,8.526187576126675188e-03,7.308160779537149418e-03,4.628501827040194805e-02,3.065717760000000180e-01,0.000000000000000000e+00,9.503725056000000393e+00
1.691116809263040768e+18,7.308160779537149418e-03,7.308160779537149418e-03,2.923264311814859767e-02,3.065717760000000180e-01,-1.532858880000000090e-01,9.503725056000000393e+00
1.691116809273040896e+18,3.654080389768574709e-03,1.705237515225335038e-02,3.654080389768574882e-02,1.532858880000000090e-01,0.000000000000000000e+00,9.350439168000001189e+00
1.691116809283040768e+18,2.436053593179049806e-03,1.096224116930572499e-02,2.801461632155907364e-02,3.065717760000000180e-01,-1.532858880000000090e-01,9.503725056000000393e+00
1.691116809293040640e+18,4.872107186358099612e-03,1.218026796589524903e-02,2.436053593179049806e-02,1.532858880000000090e-01,0.000000000000000000e+00,9.350439168000001189e+00
1.691116809303040768e+18,6.090133982947624515e-03,1.096224116930572499e-02,3.288672350791717325e-02,0.000000000000000000e+00,0.000000000000000000e+00,9.503725056000000393e+00
1.691116809313040640e+18,8.526187576126675188e-03,1.096224116930572499e-02,2.557856272838002556e-02,3.065717760000000180e-01,-1.532858880000000090e-01,9.503725056000000393e+00
1.691116809323040768e+18,-4.872107186358099612e-03,8.526187576126675188e-03,3.166869671132764574e-02,3.065717760000000180e-01,-1.532858880000000090e-01,9.657010944000001373e+00
1.691116809333040640e+18,-2.436053593179049806e-03,1.461632155907429884e-02,2.436053593179049806e-02,1.532858880000000090e-01,-1.532858880000000090e-01,9.503725056000000393e+00
1.691116809343040768e+18,-2.436053593179049806e-03,9.744214372716199224e-03,3.288672350791717325e-02,0.000000000000000000e+00,1.532858880000000090e-01,9.657010944000001373e+00
1.691116809353040640e+18,-6.090133982947624515e-03,1.218026796589524903e-02,3.410475030450670075e-02,0.000000000000000000e+00,0.000000000000000000e+00,9.503725056000000393e+00
1.691116809363040768e+18,1.218026796589524903e-03,1.096224116930572499e-02,3.288672350791717325e-02,1.532858880000000090e-01,0.000000000000000000e+00,9.503725056000000393e+00
1.691116809373040640e+18,2.436053593179049806e-03,8.526187576126675188e-03,4.263093788063337247e-02,1.532858880000000090e-01,-1.532858880000000090e-01,9.503725056000000393e+00
1.691116809383041024e+18,2.436053593179049806e-03,1.096224116930572499e-02,2.923264311814859767e-02,4.598576639999999993e-01,-1.532858880000000090e-01,9.657010944000001373e+00
1.691116809393040896e+18,1.218026796589524903e-03,9.744214372716199224e-03,2.923264311814859767e-02,0.000000000000000000e+00,-1.532858880000000090e-01,9.350439168000001189e+00
1.691116809403040768e+18,1.218026796589524903e-03,4.872107186358099612e-03,3.654080389768574882e-02,-1.532858880000000090e-01,0.000000000000000000e+00,9.657010944000001373e+00
1.691116809413040896e+18,-6.090133982947624515e-03,1.218026796589524903e-02,3.166869671132764574e-02,4.598576639999999993e-01,-1.532858880000000090e-01,9.657010944000001373e+00
1.691116809423040768e+18,-1.218026796589524903e-03,3.654080389768574709e-03,3.775883069427527633e-02,3.065717760000000180e-01,0.000000000000000000e+00,9.503725056000000393e+00
1.691116809433040896e+18,7.308160779537149418e-03,7.308160779537149418e-03,3.410475030450670075e-02,1.532858880000000090e-01,0.000000000000000000e+00,9.350439168000001189e+00
1.691116809443040768e+18,-4.872107186358099612e-03,1.339829476248477480e-02,4.019488428745432440e-02,1.532858880000000090e-01,0.000000000000000000e+00,9.503725056000000393e+00
1.691116809453040896e+18,9.744214372716199224e-03,1.339829476248477480e-02,2.801461632155907364e-02,1.532858880000000090e-01,-1.532858880000000090e-01,9.503725056000000393e+00
1.691116809463040768e+18,-4.872107186358099612e-03,6.090133982947624515e-03,3.166869671132764574e-02,1.532858880000000090e-01,0.000000000000000000e+00,9.657010944000001373e+00
1.691116809473040896e+18,-2.436053593179049806e-03,4.872107186358099612e-03,2.679658952496954960e-02,1.532858880000000090e-01,0.000000000000000000e+00,9.657010944000001373e+00
1.691116809483040768e+18,1.218026796589524903e-03,1.339829476248477480e-02,3.045066991473812518e-02,1.532858880000000090e-01,0.000000000000000000e+00,9.657010944000001373e+00
1.691116809493040896e+18,8.526187576126675188e-03,1.339829476248477480e-02,3.654080389768574882e-02,4.598576639999999993e-01,0.000000000000000000e+00,9.503725056000000393e+00
1.691116809503040768e+18,-1.218026796589524903e-03,1.218026796589524903e-02,3.410475030450670075e-02,0.000000000000000000e+00,0.000000000000000000e+00,9.503725056000000393e+00
1.691116809513040896e+18,1.218026796589524903e-03,2.436053593179049806e-02,3.654080389768574882e-02,1.532858880000000090e-01,-1.532858880000000090e-01,9.657010944000001373e+00
1.691116809523040768e+18,6.090133982947624515e-03,1.096224116930572499e-02,2.557856272838002556e-02,4.598576639999999993e-01,0.000000000000000000e+00,9.657010944000001373e+00
1.691116809533040640e+18,-1.948842874543239845e-02,6.090133982947624515e-03,4.019488428745432440e-02,1.532858880000000090e-01,-1.532858880000000090e-01,9.810296832000000578e+00
1.691116809543040768e+18,8.526187576126675188e-03,1.461632155907429884e-02,2.923264311814859767e-02,3.065717760000000180e-01,0.000000000000000000e+00,9.657010944000001373e+00
1.691116809553040640e+18,4.872107186358099612e-03,1.583434835566382287e-02,3.654080389768574882e-02,7.664294400000000174e-01,-1.532858880000000090e-01,9.503725056000000393e+00
1.691116809563040768e+18,1.218026796589524903e-03,1.461632155907429884e-02,3.410475030450670075e-02,3.065717760000000180e-01,0.000000000000000000e+00,9.657010944000001373e+00
1.691116809573040640e+18,1.218026796589524903e-03,2.679658952496954960e-02,3.410475030450670075e-02,4.598576639999999993e-01,-1.532858880000000090e-01,9.503725056000000393e+00
1.691116809583040768e+18,2.436053593179049806e-03,1.339829476248477480e-02,3.532277710109622132e-02,4.598576639999999993e-01,0.000000000000000000e+00,9.503725056000000393e+00
1.691116809593040640e+18,-1.218026796589524903e-03,1.827040194884287441e-02,3.045066991473812518e-02,6.131435520000000361e-01,0.000000000000000000e+00,9.657010944000001373e+00
1.691116809603040768e+18,8.526187576126675188e-03,2.436053593179049806e-02,3.410475030450670075e-02,7.664294400000000174e-01,-1.532858880000000090e-01,9.657010944000001373e+00
1.691116809613040640e+18,1.218026796589524903e-03,2.192448233861144999e-02,3.532277710109622132e-02,1.073001215999999980e+00,3.065717760000000180e-01,9.810296832000000578e+00
1.691116809623040768e+18,1.218026796589524903e-03,2.801461632155907364e-02,4.750304506699147555e-02,3.065717760000000180e-01,0.000000000000000000e+00,9.657010944000001373e+00
1.691116809633040896e+18,0.000000000000000000e+00,2.679658952496954960e-02,5.481120584652862671e-02,1.226287104000000072e+00,-3.065717760000000180e-01,9.503725056000000393e+00
1.691116809643040768e+18,-9.744214372716199224e-03,2.679658952496954960e-02,5.115712545676005113e-02,7.664294400000000174e-01,1.532858880000000090e-01,9.657010944000001373e+00
1.691116809653040896e+18,-1.218026796589524903e-03,2.923264311814859767e-02,5.846528623629719534e-02,7.664294400000000174e-01,0.000000000000000000e+00,9.503725056000000393e+00
1.691116809663040768e+18,2.436053593179049806e-03,1.948842874543239845e-02,7.064555420219244264e-02,7.664294400000000174e-01,0.000000000000000000e+00,9.503725056000000393e+00
1.691116809673040896e+18,4.872107186358099612e-03,2.192448233861144999e-02,6.942752740560292901e-02,4.598576639999999993e-01,1.532858880000000090e-01,9.657010944000001373e+00
1.691116809683040768e+18,-8.526187576126675188e-03,1.583434835566382287e-02,9.013398294762484109e-02,4.598576639999999993e-01,0.000000000000000000e+00,9.197153280000000208e+00
1.691116809693040896e+18,-6.090133982947624515e-03,1.096224116930572499e-02,9.622411693057247861e-02,4.598576639999999993e-01,-1.532858880000000090e-01,9.350439168000001189e+00
1.691116809703040768e+18,2.436053593179049806e-03,9.744214372716199224e-03,1.047503045066991434e-01,9.197153279999999986e-01,1.532858880000000090e-01,9.350439168000001189e+00
1.691116809713040896e+18,3.654080389768574709e-03,1.339829476248477480e-02,1.230207064555420282e-01,4.598576639999999993e-01,0.000000000000000000e+00,9.503725056000000393e+00
1.691116809723040768e+18,-2.436053593179049806e-03,7.308160779537149418e-03,1.376370280146163305e-01,6.131435520000000361e-01,1.532858880000000090e-01,9.350439168000001189e+00
1.691116809733040896e+18,-1.218026796589524903e-03,3.654080389768574709e-03,1.461632155907429953e-01,0.000000000000000000e+00,1.532858880000000090e-01,9.503725056000000393e+00
1.691116809743040768e+18,2.436053593179049806e-03,6.090133982947624515e-03,1.753958587088915999e-01,6.131435520000000361e-01,1.532858880000000090e-01,9.503725056000000393e+00
1.691116809753040896e+18,-2.436053593179049806e-03,-7.308160779537149418e-03,1.729598051157125449e-01,7.664294400000000174e-01,0.000000000000000000e+00,9.657010944000001373e+00
1.691116809763040768e+18,-7.308160779537149418e-03,-2.436053593179049806e-03,1.997563946406820945e-01,1.073001215999999980e+00,1.532858880000000090e-01,9.963582719999999782e+00
1.691116809773040896e+18,6.090133982947624515e-03,3.654080389768574709e-03,2.082825822168087593e-01,-1.532858880000000090e-01,4.598576639999999993e-01,9.350439168000001189e+00
1.691116809783040768e+18,-7.308160779537149418e-03,1.218026796589524903e-02,2.265529841656516441e-01,9.197153279999999986e-01,1.532858880000000090e-01,9.657010944000001373e+00
1.691116809793040640e+18,-6.090133982947624515e-03,6.090133982947624515e-03,2.387332521315468914e-01,1.532858880000000090e-01,0.000000000000000000e+00,9.657010944000001373e+00
1.691116809803040768e+18,3.654080389768574709e-03,3.654080389768574709e-03,2.387332521315468914e-01,1.073001215999999980e+00,-1.532858880000000090e-01,9.657010944000001373e+00
1.691116809813040640e+18,0.000000000000000000e+00,3.654080389768574709e-03,2.496954933008526112e-01,0.000000000000000000e+00,1.532858880000000090e-01,9.043867392000001004e+00
1.691116809823040768e+18,-7.308160779537149418e-03,2.192448233861144999e-02,2.460414129110840564e-01,-4.598576639999999993e-01,-3.065717760000000180e-01,9.197153280000000208e+00
1.691116809833040640e+18,-4.872107186358099612e-03,1.218026796589524903e-02,2.277710109622411716e-01,0.000000000000000000e+00,-6.131435520000000361e-01,9.657010944000001373e+00
1.691116809843040768e+18,3.654080389768574709e-03,6.090133982947624515e-03,2.204628501827040066e-01,-3.065717760000000180e-01,-4.598576639999999993e-01,9.350439168000001189e+00
1.691116809853040640e+18,6.090133982947624515e-03,9.744214372716199224e-03,1.985383678440925670e-01,-3.065717760000000180e-01,-3.065717760000000180e-01,9.657010944000001373e+00
1.691116809863040768e+18,1.096224116930572499e-02,6.090133982947624515e-03,1.936662606577344570e-01,-3.065717760000000180e-01,-7.664294400000000174e-01,9.043867392000001004e+00
1.691116809873040640e+18,-8.526187576126675188e-03,-1.339829476248477480e-02,1.425091352009744128e-01,-1.073001215999999980e+00,-7.664294400000000174e-01,9.657010944000001373e+00
1.691116809883041024e+18,0.000000000000000000e+00,-7.308160779537149418e-03,1.169305724725943907e-01,7.664294400000000174e-01,-7.664294400000000174e-01,9.350439168000001189e+00
1.691116809893040896e+18,-1.218026796589524903e-02,8.526187576126675188e-03,9.866017052375151974e-02,1.532858880000000090e-01,-4.598576639999999993e-01,9.503725056000000393e+00
1.691116809903040768e+18,4.872107186358099612e-03,-1.218026796589524903e-02,5.115712545676005113e-02,-1.532858880000000090e-01,-4.598576639999999993e-01,9.503725056000000393e+00
1.691116809913040896e+18,-4.872107186358099612e-03,-2.436053593179049806e-02,3.775883069427527633e-02,-1.686144768000000127e+00,-6.131435520000000361e-01,9.657010944000001373e+00
1.691116809923040768e+18,0.000000000000000000e+00,-2.557856272838002556e-02,-2.436053593179049806e-03,-4.598576639999999993e-01,-6.131435520000000361e-01,9.197153280000000208e+00
1.691116809933040896e+18,8.526187576126675188e-03,-2.801461632155907364e-02,-4.141291108404385191e-02,-3.065717760000000180e-01,-4.598576639999999993e-01,9.503725056000000393e+00
1.691116809943040768e+18,6.090133982947624515e-03,-3.045066991473812518e-02,-6.333739342265529149e-02,-3.065717760000000180e-01,-4.598576639999999993e-01,9.657010944000001373e+00
1.691116809953040896e+18,3.654080389768574709e-03,-2.923264311814859767e-02,-1.132764920828258220e-01,-4.598576639999999993e-01,-4.598576639999999993e-01,9.657010944000001373e+00
1.691116809963040768e+18,7.308160779537149418e-03,-2.192448233861144999e-02,-1.339829476248477480e-01,-3.065717760000000180e-01,-6.131435520000000361e-01,9.503725056000000393e+00
1.691116809973040896e+18,9.744214372716199224e-03,-1.827040194884287441e-02,-1.534713763702801326e-01,-6.131435520000000361e-01,-3.065717760000000180e-01,9.503725056000000393e+00
1.691116809983040768e+18,1.096224116930572499e-02,-2.557856272838002556e-02,-1.632155907429963526e-01,-1.226287104000000072e+00,-1.532858880000000090e-01,9.963582719999999782e+00
1.691116809993040896e+18,0.000000000000000000e+00,-1.827040194884287441e-02,-1.717417783191230174e-01,-4.598576639999999993e-01,-3.065717760000000180e-01,9.657010944000001373e+00
1.691116810003040768e+18,-3.654080389768574709e-03,-1.096224116930572499e-02,-1.778319123020706549e-01,-3.065717760000000180e-01,-1.532858880000000090e-01,9.657010944000001373e+00
1.691116810013040896e+18,6.090133982947624515e-03,4.872107186358099612e-03,-1.814859926918392097e-01,-1.073001215999999980e+00,-1.532858880000000090e-01,9.657010944000001373e+00
1.691116810023040768e+18,2.436053593179049806e-03,1.218026796589524903e-02,-1.741778319123020724e-01,-6.131435520000000361e-01,1.532858880000000090e-01,9.810296832000000578e+00
1.691116810033040640e+18,1.218026796589524903e-03,1.096224116930572499e-02,-1.644336175395858801e-01,-3.065717760000000180e-01,1.532858880000000090e-01,9.657010944000001373e+00
1.691116810043040768e+18,-7.308160779537149418e-03,1.827040194884287441e-02,-1.534713763702801326e-01,0.000000000000000000e+00,0.000000000000000000e+00,9.503725056000000393e+00
1.691116810053040640e+18,2.436053593179049806e-03,3.288672350791717325e-02,-1.412911084043848853e-01,-4.598576639999999993e-01,0.000000000000000000e+00,9.810296832000000578e+00
1.691116810063040768e+18,7.308160779537149418e-03,3.897685749086479690e-02,-1.327649208282582205e-01,1.532858880000000090e-01,3.065717760000000180e-01,9.810296832000000578e+00
1.691116810073040640e+18,-1.583434835566382287e-02,5.846528623629719534e-02,-7.795371498172959379e-02,0.000000000000000000e+00,3.065717760000000180e-01,9.810296832000000578e+00
1.691116810083040768e+18,-1.461632155907429884e-02,7.795371498172959379e-02,-6.577344701583434650e-02,0.000000000000000000e+00,3.065717760000000180e-01,9.810296832000000578e+00
1.691116810093040640e+18,-1.218026796589524903e-03,9.622411693057247861e-02,-3.654080389768574882e-02,3.065717760000000180e-01,3.065717760000000180e-01,9.657010944000001373e+00
1.691116810103040768e+18,-1.096224116930572499e-02,1.023142509135201023e-01,-1.948842874543239845e-02,1.532858880000000090e-01,3.065717760000000180e-01,9.350439168000001189e+00
1.691116810113040640e+18,2.436053593179049806e-03,9.744214372716199224e-02,2.192448233861144999e-02,6.131435520000000361e-01,3.065717760000000180e-01,9.657010944000001373e+00
1.691116810123040768e+18,-3.654080389768574709e-03,9.257003654080389610e-02,4.506699147381242054e-02,6.131435520000000361e-01,3.065717760000000180e-01,9.503725056000000393e+00
1.691116810133040896e+18,-6.090133982947624515e-03,9.378806333739342360e-02,5.846528623629719534e-02,1.532858880000000090e-01,1.532858880000000090e-01,9.503725056000000393e+00
1.691116810143040768e+18,-9.744214372716199224e-03,9.378806333739342360e-02,8.160779537149817631e-02,6.131435520000000361e-01,7.664294400000000174e-01,9.810296832000000578e+00
1.691116810153040896e+18,-9.744214372716199224e-03,9.744214372716199224e-02,1.144945188794153496e-01,1.686144768000000127e+00,4.598576639999999993e-01,9.197153280000000208e+00
1.691116810163040768e+18,3.654080389768574709e-03,9.013398294762484109e-02,1.376370280146163305e-01,9.197153279999999986e-01,0.000000000000000000e+00,9.657010944000001373e+00
1.691116810173040896e+18,1.218026796589524903e-03,8.038976857490864880e-02,1.400730816077953578e-01,1.226287104000000072e+00,3.065717760000000180e-01,9.350439168000001189e+00
1.691116810183040768e+18,-4.872107186358099612e-03,4.872107186358099612e-02,1.559074299634591876e-01,6.131435520000000361e-01,-1.532858880000000090e-01,9.503725056000000393e+00
1.691116810193040896e+18,1.218026796589524903e-03,3.775883069427527633e-02,1.534713763702801326e-01,1.532858880000000035e+00,-3.065717760000000180e-01,9.197153280000000208e+00
1.691116810203040768e+18,3.654080389768574709e-03,2.314250913520097402e-02,1.607795371498172976e-01,1.226287104000000072e+00,-1.532858880000000090e-01,9.197153280000000208e+00
1.691116810213040896e+18,3.654080389768574709e-03,1.705237515225335038e-02,1.693057247259439624e-01,7.664294400000000174e-01,0.000000000000000000e+00,9.657010944000001373e+00
1.691116810223040768e+18,6.090133982947624515e-03,1.948842874543239845e-02,1.717417783191230174e-01,1.379572992000000164e+00,0.000000000000000000e+00,9.503725056000000393e+00
1.691116810233040896e+18,3.654080389768574709e-03,7.308160779537149418e-03,1.680876979293544349e-01,7.664294400000000174e-01,0.000000000000000000e+00,9.503725056000000393e+00
1.691116810243040768e+18,-4.872107186358099612e-03,1.096224116930572499e-02,1.632155907429963526e-01,1.379572992000000164e+00,-3.065717760000000180e-01,9.197153280000000208e+00
1.691116810253040896e+18,-7.308160779537149418e-03,-6.090133982947624515e-03,1.583434835566382426e-01,1.073001215999999980e+00,-3.065717760000000180e-01,9.503725056000000393e+00
1.691116810263040768e+18,4.872107186358099612e-03,-1.339829476248477480e-02,1.449451887941534678e-01,1.532858880000000035e+00,-3.065717760000000180e-01,9.503725056000000393e+00
1.691116810273040896e+18,0.000000000000000000e+00,-1.218026796589524903e-02,1.498172959805115778e-01,1.532858880000000035e+00,-1.532858880000000090e-01,9.657010944000001373e+00
1.691116810283040768e+18,0.000000000000000000e+00,-1.218026796589524903e-02,1.425091352009744128e-01,1.379572992000000164e+00,-1.532858880000000090e-01,9.657010944000001373e+00
1.691116810293040640e+18,4.872107186358099612e-03,-2.436053593179049806e-03,1.510353227771011053e-01,1.379572992000000164e+00,1.532858880000000090e-01,9.810296832000000578e+00
1.691116810303040768e+18,-2.436053593179049806e-03,-6.090133982947624515e-03,1.595615103532277701e-01,1.379572992000000164e+00,-1.532858880000000090e-01,9.657010944000001373e+00
1.691116810313040640e+18,-1.218026796589524903e-03,-9.744214372716199224e-03,1.595615103532277701e-01,1.226287104000000072e+00,-1.532858880000000090e-01,9.350439168000001189e+00
1.691116810323040768e+18,-7.308160779537149418e-03,-1.096224116930572499e-02,1.522533495736906328e-01,1.532858880000000035e+00,-1.532858880000000090e-01,9.810296832000000578e+00
1.691116810333040640e+18,1.218026796589524903e-03,-7.308160779537149418e-03,1.607795371498172976e-01,1.226287104000000072e+00,0.000000000000000000e+00,9.657010944000001373e+00
1.691116810343040768e+18,-8.526187576126675188e-03,-1.218026796589524903e-03,1.705237515225334899e-01,1.226287104000000072e+00,0.000000000000000000e+00,9.657010944000001373e+00
1.691116810353040640e+18,3.654080389768574709e-03,3.654080389768574709e-03,1.827040194884287372e-01,1.379572992000000164e+00,0.000000000000000000e+00,9.503725056000000393e+00
1.691116810363040768e+18,-7.308160779537149418e-03,7.308160779537149418e-03,1.900121802679659022e-01,1.226287104000000072e+00,0.000000000000000000e+00,9.657010944000001373e+00
1.691116810373040640e+18,3.654080389768574709e-03,4.872107186358099612e-03,1.924482338611449572e-01,1.379572992000000164e+00,-1.532858880000000090e-01,9.503725056000000393e+00
1.691116810383041024e+18,-1.218026796589524903e-03,9.744214372716199224e-03,1.961023142509135120e-01,1.379572992000000164e+00,-1.532858880000000090e-01,9.657010944000001373e+00
1.691116810393040896e+18,1.339829476248477480e-02,1.827040194884287441e-02,1.997563946406820945e-01,7.664294400000000174e-01,-1.532858880000000090e-01,9.657010944000001373e+00
1.691116810403040768e+18,1.461632155907429884e-02,1.218026796589524903e-02,2.058465286236297320e-01,1.226287104000000072e+00,0.000000000000000000e+00,9.503725056000000393e+00
1.691116810413040896e+18,1.827040194884287441e-02,1.096224116930572499e-02,2.155907429963459243e-01,9.197153279999999986e-01,-1.532858880000000090e-01,9.503725056000000393e+00
1.691116810423040768e+18,1.948842874543239845e-02,7.308160779537149418e-03,2.131546894031668693e-01,1.226287104000000072e+00,0.000000000000000000e+00,9.503725056000000393e+00
1.691116810433040896e+18,1.339829476248477480e-02,9.744214372716199224e-03,2.265529841656516441e-01,1.073001215999999980e+00,0.000000000000000000e+00,9.657010944000001373e+00
1.691116810443040768e+18,1.583434835566382287e-02,2.192448233861144999e-02,2.289890377588306991e-01,1.379572992000000164e+00,-1.532858880000000090e-01,9.657010944000001373e+00
1.691116810453040896e+18,1.096224116930572499e-02,1.705237515225335038e-02,2.253349573690621166e-01,9.197153279999999986e-01,1.532858880000000090e-01,9.657010944000001373e+00
1.691116810463040768e+18,1.827040194884287441e-02,7.308160779537149418e-03,2.375152253349573639e-01,1.226287104000000072e+00,1.532858880000000090e-01,9.350439168000001189e+00
1.691116810473040896e+18,2.436053593179049806e-03,3.654080389768574709e-03,2.423873325213154739e-01,1.073001215999999980e+00,1.532858880000000090e-01,9.197153280000000208e+00
1.691116810483040768e+18,4.872107186358099612e-03,-2.436053593179049806e-03,2.472594397076735562e-01,6.131435520000000361e-01,1.532858880000000090e-01,9.503725056000000393e+00
1.691116810493040896e+18,-4.872107186358099612e-03,4.872107186358099612e-03,2.570036540803897762e-01,1.073001215999999980e+00,1.532858880000000090e-01,9.503725056000000393e+00
1.691116810503040768e+18,1.218026796589524903e-03,6.090133982947624515e-03,2.655298416565164410e-01,1.532858880000000035e+00,0.000000000000000000e+00,9.503725056000000393e+00
1.691116810513040896e+18,-9.744214372716199224e-03,1.218026796589524903e-03,2.570036540803897762e-01,1.379572992000000164e+00,-1.532858880000000090e-01,9.503725056000000393e+00
1.691116810523040768e+18,1.218026796589524903e-03,1.218026796589524903e-03,2.582216808769792760e-01,1.226287104000000072e+00,0.000000000000000000e+00,9.350439168000001189e+00
1.691116810533040640e+18,2.436053593179049806e-03,-7.308160779537149418e-03,2.582216808769792760e-01,1.226287104000000072e+00,0.000000000000000000e+00,9.503725056000000393e+00
1.691116810543040768e+18,-8.526187576126675188e-03,-1.948842874543239845e-02,2.643118148599269412e-01,7.664294400000000174e-01,0.000000000000000000e+00,9.657010944000001373e+00
1.691116810553040640e+18,2.436053593179049806e-03,-8.526187576126675188e-03,2.667478684531059407e-01,9.197153279999999986e-01,0.000000000000000000e+00,9.657010944000001373e+00
1.691116810563040768e+18,1.096224116930572499e-02,-1.218026796589524903e-03,2.618757612667478862e-01,1.226287104000000072e+00,0.000000000000000000e+00,9.350439168000001189e+00
1.691116810573040640e+18,0.000000000000000000e+00,-1.218026796589524903e-03,2.557856272838002210e-01,1.073001215999999980e+00,-1.532858880000000090e-01,9.503725056000000393e+00
1.691116810583040768e+18,7.308160779537149418e-03,-4.872107186358099612e-03,2.484774665042630837e-01,7.664294400000000174e-01,-1.532858880000000090e-01,9.350439168000001189e+00
1.691116810593040640e+18,1.218026796589524903e-03,-1.461632155907429884e-02,2.496954933008526112e-01,1.379572992000000164e+00,1.532858880000000090e-01,9.810296832000000578e+00
1.691116810603040768e+18,-1.218026796589524903e-03,-1.096224116930572499e-02,2.509135200974421664e-01,1.073001215999999980e+00,1.532858880000000090e-01,9.657010944000001373e+00
1.691116810613040640e+18,7.308160779537149418e-03,2.436053593179049806e-03,2.570036540803897762e-01,9.197153279999999986e-01,0.000000000000000000e+00,9.657010944000001373e+00
1.691116810623040768e+18,3.654080389768574709e-03,3.654080389768574709e-03,2.643118148599269412e-01,1.073001215999999980e+00,-1.532858880000000090e-01,9.657010944000001373e+00
1.691116810633040896e+18,6.090133982947624515e-03,1.461632155907429884e-02,2.411693057247259464e-01,1.379572992000000164e+00,-4.598576639999999993e-01,9.197153280000000208e+00
1.691116810643040768e+18,1.218026796589524903e-02,-3.654080389768574709e-03,2.241169305724725891e-01,1.226287104000000072e+00,-1.532858880000000090e-01,9.043867392000001004e+00
1.691116810653040896e+18,4.872107186358099612e-03,-2.923264311814859767e-02,2.289890377588306991e-01,4.598576639999999993e-01,0.000000000000000000e+00,9.657010944000001373e+00
1.691116810663040768e+18,9.744214372716199224e-03,-1.218026796589524903e-02,2.228989037758830616e-01,9.197153279999999986e-01,1.532858880000000090e-01,9.963582719999999782e+00
1.691116810673040896e+18,7.308160779537149418e-03,9.744214372716199224e-03,2.253349573690621166e-01,1.532858880000000090e-01,0.000000000000000000e+00,1.011686860800000076e+01
1.691116810683040768e+18,1.096224116930572499e-02,3.045066991473812518e-02,2.180267965895249793e-01,7.664294400000000174e-01,-4.598576639999999993e-01,9.197153280000000208e+00
1.691116810693040896e+18,-4.872107186358099612e-03,9.744214372716199224e-03,2.034104750304506770e-01,7.664294400000000174e-01,-1.532858880000000090e-01,8.737295616000000820e+00
1.691116810703040768e+18,-7.308160779537149418e-03,-2.923264311814859767e-02,1.985383678440925670e-01,4.598576639999999993e-01,-1.532858880000000090e-01,9.197153280000000208e+00
1.691116810713040896e+18,1.948842874543239845e-02,-3.410475030450670075e-02,1.961023142509135120e-01,6.131435520000000361e-01,-1.532858880000000090e-01,9.503725056000000393e+00
1.691116810723040768e+18,-4.872107186358099612e-03,-1.096224116930572499e-02,1.680876979293544349e-01,7.664294400000000174e-01,-1.532858880000000090e-01,9.810296832000000578e+00
1.691116810733040896e+18,-4.872107186358099612e-03,-1.096224116930572499e-02,1.693057247259439624e-01,-3.065717760000000180e-01,-3.065717760000000180e-01,9.810296832000000578e+00
1.691116810743040768e+18,4.872107186358099612e-03,-9.744214372716199224e-03,1.510353227771011053e-01,1.226287104000000072e+00,-4.598576639999999993e-01,8.584009727999999839e+00
1.691116810753040896e+18,1.461632155907429884e-02,-3.410475030450670075e-02,1.169305724725943907e-01,1.532858880000000090e-01,-4.598576639999999993e-01,9.197153280000000208e+00
1.691116810763040768e+18,-1.218026796589524903e-03,-3.654080389768574882e-02,9.378806333739342360e-02,3.065717760000000180e-01,-3.065717760000000180e-01,9.657010944000001373e+00
1.691116810773040896e+18,3.654080389768574709e-03,-3.288672350791717325e-02,7.064555420219244264e-02,4.598576639999999993e-01,-6.131435520000000361e-01,9.810296832000000578e+00
1.691116810783040768e+18,8.526187576126675188e-03,-2.070645554202192595e-02,4.019488428745432440e-02,4.598576639999999993e-01,-3.065717760000000180e-01,9.657010944000001373e+00
1.691116810793040640e+18,7.308160779537149418e-03,-1.705237515225335038e-02,1.827040194884287441e-02,0.000000000000000000e+00,-6.131435520000000361e-01,9.657010944000001373e+00
1.691116810803040768e+18,0.000000000000000000e+00,-1.705237515225335038e-02,3.654080389768574709e-03,1.532858880000000090e-01,-3.065717760000000180e-01,9.503725056000000393e+00
1.691116810813040640e+18,1.218026796589524903e-02,-1.705237515225335038e-02,-3.410475030450670075e-02,4.598576639999999993e-01,-6.131435520000000361e-01,9.810296832000000578e+00
1.691116810823040768e+18,1.218026796589524903e-03,-2.070645554202192595e-02,-5.481120584652862671e-02,1.532858880000000090e-01,-1.532858880000000090e-01,9.963582719999999782e+00
1.691116810833040640e+18,-6.090133982947624515e-03,-1.096224116930572499e-02,-8.891595615103532746e-02,0.000000000000000000e+00,-3.065717760000000180e-01,9.657010944000001373e+00
1.691116810843040768e+18,-1.218026796589524903e-02,2.436053593179049806e-03,-1.144945188794153496e-01,7.664294400000000174e-01,-3.065717760000000180e-01,9.350439168000001189e+00
1.691116810853040640e+18,0.000000000000000000e+00,-1.461632155907429884e-02,-1.266747868453105830e-01,1.532858880000000090e-01,0.000000000000000000e+00,9.657010944000001373e+00
1.691116810863040768e+18,3.654080389768574709e-03,-1.948842874543239845e-02,-1.181485992691839182e-01,-4.598576639999999993e-01,0.000000000000000000e+00,9.810296832000000578e+00
1.691116810873040640e+18,-2.436053593179049806e-03,-9.744214372716199224e-03,-1.108404384896467670e-01,3.065717760000000180e-01,0.000000000000000000e+00,9.810296832000000578e+00
1.691116810883041024e+18,-4.872107186358099612e-03,-7.308160779537149418e-03,-1.144945188794153496e-01,1.532858880000000090e-01,0.000000000000000000e+00,9.657010944000001373e+00
1.691116810893040896e+18,-1.705237515225335038e-02,-2.436053593179049806e-03,-1.218026796589525007e-01,-3.065717760000000180e-01,3.065717760000000180e-01,9.197153280000000208e+00
1.691116810903040768e+18,-1.827040194884287441e-02,9.744214372716199224e-03,-1.132764920828258220e-01,0.000000000000000000e+00,0.000000000000000000e+00,9.503725056000000393e+00
1.691116810913040896e+18,-1.461632155907429884e-02,9.744214372716199224e-03,-8.038976857490864880e-02,-3.065717760000000180e-01,0.000000000000000000e+00,9.810296832000000578e+00
1.691116810923040768e+18,-2.314250913520097402e-02,-6.090133982947624515e-03,-6.699147381242387400e-02,0.000000000000000000e+00,1.532858880000000090e-01,9.810296832000000578e+00
1.691116810933040896e+18,-7.308160779537149418e-03,2.436053593179049806e-03,-4.750304506699147555e-02,-1.532858880000000090e-01,1.532858880000000090e-01,9.810296832000000578e+00
1.691116810943040768e+18,-1.339829476248477480e-02,9.744214372716199224e-03,-3.410475030450670075e-02,-6.131435520000000361e-01,0.000000000000000000e+00,9.503725056000000393e+00
1.691116810953040896e+18,0.000000000000000000e+00,6.090133982947624515e-03,-2.070645554202192595e-02,-1.532858880000000090e-01,0.000000000000000000e+00,9.350439168000001189e+00
1.691116810963040768e+18,-8.526187576126675188e-03,1.218026796589524903e-03,-6.090133982947624515e-03,3.065717760000000180e-01,-3.065717760000000180e-01,9.350439168000001189e+00
1.691116810973040896e+18,7.308160779537149418e-03,1.096224116930572499e-02,0.000000000000000000e+00,0.000000000000000000e+00,1.532858880000000090e-01,9.503725056000000393e+00
1.691116810983040768e+18,4.872107186358099612e-03,4.872107186358099612e-03,2.679658952496954960e-02,-4.598576639999999993e-01,3.065717760000000180e-01,9.657010944000001373e+00
1.691116810993040896e+18,1.339829476248477480e-02,1.339829476248477480e-02,4.506699147381242054e-02,0.000000000000000000e+00,1.532858880000000090e-01,9.810296832000000578e+00
1.691116811003040768e+18,1.218026796589524903e-02,2.557856272838002556e-02,5.481120584652862671e-02,1.532858880000000090e-01,3.065717760000000180e-01,9.503725056000000393e+00
1.691116811013040896e+18,1.339829476248477480e-02,1.583434835566382287e-02,7.308160779537149765e-02,1.532858880000000090e-01,0.000000000000000000e+00,9.503725056000000393e+00
1.691116811023040768e+18,1.705237515225335038e-02,2.557856272838002556e-02,8.647990255785627245e-02,0.000000000000000000e+00,1.532858880000000090e-01,9.350439168000001189e+00
1.691116811033040640e+18,1.339829476248477480e-02,1.461632155907429884e-02,1.010962241169305748e-01,1.532858880000000090e-01,0.000000000000000000e+00,9.963582719999999782e+00
1.691116811043040768e+18,9.744214372716199224e-03,1.948842874543239845e-02,1.071863580998781984e-01,6.131435520000000361e-01,0.000000000000000000e+00,9.657010944000001373e+00
1.691116811053040640e+18,4.872107186358099612e-03,-1.218026796589524903e-03,1.071863580998781984e-01,-3.065717760000000180e-01,1.532858880000000090e-01,9.810296832000000578e+00
1.691116811063040768e+18,7.308160779537149418e-03,8.526187576126675188e-03,1.144945188794153496e-01,1.532858880000000090e-01,1.532858880000000090e-01,9.350439168000001189e+00
1.691116811073040640e+18,6.090133982947624515e-03,1.339829476248477480e-02,1.157125456760048771e-01,4.598576639999999993e-01,0.000000000000000000e+00,9.503725056000000393e+00
1.691116811083040768e+18,7.308160779537149418e-03,1.827040194884287441e-02,1.278928136419001105e-01,0.000000000000000000e+00,0.000000000000000000e+00,1.011686860800000076e+01
1.691116811093040640e+18,-1.827040194884287441e-02,3.166869671132764574e-02,1.242387332521315418e-01,4.598576639999999993e-01,0.000000000000000000e+00,9.657010944000001373e+00
1.691116811103040768e+18,-9.744214372716199224e-03,1.339829476248477480e-02,1.254567600487210832e-01,3.065717760000000180e-01,-1.532858880000000090e-01,9.197153280000000208e+00
1.691116811113040640e+18,-2.314250913520097402e-02,-6.090133982947624515e-03,1.023142509135201023e-01,-1.532858880000000090e-01,0.000000000000000000e+00,9.503725056000000393e+00
1.691116811123040768e+18,-1.948842874543239845e-02,9.744214372716199224e-03,1.035322777101096159e-01,1.532858880000000090e-01,-1.532858880000000090e-01,9.810296832000000578e+00
1.691116811133040896e+18,-2.436053593179049806e-02,3.166869671132764574e-02,9.622411693057247861e-02,7.664294400000000174e-01,-6.131435520000000361e-01,9.657010944000001373e+00
1.691116811143040768e+18,-1.705237515225335038e-02,3.654080389768574882e-02,7.795371498172959379e-02,1.532858880000000090e-01,-1.532858880000000090e-01,9.350439168000001189e+00
1.691116811153040896e+18,-2.314250913520097402e-02,2.679658952496954960e-02,6.211936662606577092e-02,6.131435520000000361e-01,-3.065717760000000180e-01,9.197153280000000208e+00
1.691116811163040768e+18,-1.461632155907429884e-02,6.090133982947624515e-03,5.968331303288672285e-02,-6.131435520000000361e-01,-6.131435520000000361e-01,9.043867392000001004e+00
1.691116811173040896e+18,6.090133982947624515e-03,8.526187576126675188e-03,4.019488428745432440e-02,7.664294400000000174e-01,-6.131435520000000361e-01,9.657010944000001373e+00
1.691116811183040768e+18,2.436053593179049806e-03,1.096224116930572499e-02,2.436053593179049806e-02,4.598576639999999993e-01,-3.065717760000000180e-01,9.350439168000001189e+00
1.691116811193040896e+18,1.218026796589524903e-03,1.096224116930572499e-02,1.461632155907429884e-02,1.532858880000000090e-01,-4.598576639999999993e-01,9.503725056000000393e+00
1.691116811203040768e+18,7.308160779537149418e-03,-1.218026796589524903e-03,1.218026796589524903e-03,0.000000000000000000e+00,-1.532858880000000090e-01,9.350439168000001189e+00
1.691116811213040896e+18,6.090133982947624515e-03,3.654080389768574709e-03,3.654080389768574709e-03,4.598576639999999993e-01,-3.065717760000000180e-01,9.503725056000000393e+00
1.691116811223040768e+18,1.096224116930572499e-02,-6.090133982947624515e-03,1.218026796589524903e-03,3.065717760000000180e-01,-1.532858880000000090e-01,9.810296832000000578e+00
1.691116811233040896e+18,1.461632155907429884e-02,0.000000000000000000e+00,-8.526187576126675188e-03,-1.532858880000000090e-01,-1.532858880000000090e-01,9.963582719999999782e+00
1.691116811243040768e+18,1.461632155907429884e-02,1.339829476248477480e-02,-1.583434835566382287e-02,0.000000000000000000e+00,0.000000000000000000e+00,9.197153280000000208e+00
1.691116811253040896e+18,8.526187576126675188e-03,-3.654080389768574709e-03,-9.744214372716199224e-03,7.664294400000000174e-01,1.532858880000000090e-01,8.737295616000000820e+00
1.691116811263040768e+18,7.308160779537149418e-03,-1.705237515225335038e-02,-1.218026796589524903e-03,1.532858880000000090e-01,0.000000000000000000e+00,9.503725056000000393e+00
1.691116811273040896e+18,2.436053593179049806e-03,-4.872107186358099612e-03,2.436053593179049806e-03,0.000000000000000000e+00,-1.532858880000000090e-01,1.011686860800000076e+01
1.691116811283040768e+18,8.526187576126675188e-03,1.339829476248477480e-02,-1.218026796589524903e-03,6.131435520000000361e-01,-1.532858880000000090e-01,9.810296832000000578e+00
1.691116811293040640e+18,6.090133982947624515e-03,4.872107186358099612e-03,6.090133982947624515e-03,4.598576639999999993e-01,0.000000000000000000e+00,9.503725056000000393e+00
1.691116811303040768e+18,8.526187576126675188e-03,2.436053593179049806e-03,4.872107186358099612e-03,-3.065717760000000180e-01,-1.532858880000000090e-01,9.810296832000000578e+00
1.691116811313040640e+18,9.744214372716199224e-03,1.948842874543239845e-02,1.096224116930572499e-02,4.598576639999999993e-01,-3.065717760000000180e-01,9.810296832000000578e+00
1.691116811323040768e+18,1.218026796589524903e-03,1.583434835566382287e-02,2.436053593179049806e-03,-1.532858880000000090e-01,0.000000000000000000e+00,9.503725056000000393e+00
1.691116811333040640e+18,2.436053593179049806e-03,1.948842874543239845e-02,1.339829476248477480e-02,1.532858880000000090e-01,0.000000000000000000e+00,9.963582719999999782e+00
1.691116811343040768e+18,3.654080389768574709e-03,2.192448233861144999e-02,2.436053593179049806e-02,-6.131435520000000361e-01,-3.065717760000000180e-01,9.963582719999999782e+00
1.691116811353040640e+18,-1.096224116930572499e-02,2.192448233861144999e-02,2.436053593179049806e-02,6.131435520000000361e-01,-3.065717760000000180e-01,9.350439168000001189e+00
1.691116811363040768e+18,1.218026796589524903e-03,3.654080389768574709e-03,1.339829476248477480e-02,0.000000000000000000e+00,0.000000000000000000e+00,9.657010944000001373e+00
1.691116811373040640e+18,6.090133982947624515e-03,7.308160779537149418e-03,2.192448233861144999e-02,-4.598576639999999993e-01,1.532858880000000090e-01,9.657010944000001373e+00
1.691116811383041024e+18,-3.654080389768574709e-03,2.923264311814859767e-02,4.384896467722289998e-02,4.598576639999999993e-01,-1.532858880000000090e-01,9.657010944000001373e+00
1.691116811393040896e+18,2.436053593179049806e-03,2.679658952496954960e-02,3.288672350791717325e-02,-1.073001215999999980e+00,0.000000000000000000e+00,9.197153280000000208e+00
1.691116811403040768e+18,-1.096224116930572499e-02,1.705237515225335038e-02,4.141291108404385191e-02,-1.532858880000000090e-01,-1.532858880000000090e-01,9.350439168000001189e+00
1.691116811413040896e+18,6.090133982947624515e-03,2.557856272838002556e-02,4.750304506699147555e-02,0.000000000000000000e+00,-1.532858880000000090e-01,9.810296832000000578e+00
1.691116811423040768e+18,6.090133982947624515e-03,2.801461632155907364e-02,4.384896467722289998e-02,3.065717760000000180e-01,-1.532858880000000090e-01,9.810296832000000578e+00
1.691116811433040896e+18,8.526187576126675188e-03,1.096224116930572499e-02,4.019488428745432440e-02,-4.598576639999999993e-01,-3.065717760000000180e-01,9.503725056000000393e+00
1.691116811443040768e+18,2.070645554202192595e-02,2.314250913520097402e-02,4.019488428745432440e-02,3.065717760000000180e-01,-4.598576639999999993e-01,9.503725056000000393e+00
1.691116811453040896e+18,-6.090133982947624515e-03,0.000000000000000000e+00,3.775883069427527633e-02,1.532858880000000090e-01,-1.532858880000000090e-01,9.657010944000001373e+00
1.691116811463040768e+18,1.218026796589524903e-02,0.000000000000000000e+00,4.506699147381242054e-02,1.532858880000000090e-01,0.000000000000000000e+00,9.810296832000000578e+00
1.691116811473040896e+18,7.308160779537149418e-03,2.679658952496954960e-02,3.897685749086479690e-02,3.065717760000000180e-01,1.532858880000000090e-01,9.503725056000000393e+00
1.691116811483040768e+18,1.461632155907429884e-02,3.654080389768574882e-02,3.897685749086479690e-02,-3.065717760000000180e-01,0.000000000000000000e+00,9.503725056000000393e+00
1.691116811493040896e+18,-8.526187576126675188e-03,2.679658952496954960e-02,4.750304506699147555e-02,6.131435520000000361e-01,0.000000000000000000e+00,9.197153280000000208e+00
1.691116811503040768e+18,8.526187576126675188e-03,0.000000000000000000e+00,4.628501827040194805e-02,-3.065717760000000180e-01,1.532858880000000090e-01,9.810296832000000578e+00
1.691116811513040896e+18,0.000000000000000000e+00,2.436053593179049806e-03,4.506699147381242054e-02,4.598576639999999993e-01,0.000000000000000000e+00,9.963582719999999782e+00
1.691116811523040768e+18,-1.218026796589524903e-03,2.314250913520097402e-02,4.750304506699147555e-02,1.532858880000000090e-01,0.000000000000000000e+00,9.657010944000001373e+00
1.691116811533040640e+18,-9.744214372716199224e-03,3.045066991473812518e-02,5.481120584652862671e-02,-4.598576639999999993e-01,0.000000000000000000e+00,9.197153280000000208e+00
1.691116811543040768e+18,7.308160779537149418e-03,1.705237515225335038e-02,5.359317904993909920e-02,1.532858880000000090e-01,-1.532858880000000090e-01,9.503725056000000393e+00
