timestamp, angular_velocity_x, angular_velocity_y, angular_velocity_z, linear_acceleration_x, linear_acceleration_y, linear_acceleration_z
1520530308181901469, 0.1408812216651917, -0.06578007892495719, 0.0346210941710301, -1.648970947265625, -0.39158569335937504, 10.600356445312501
1520530308186917469, 0.13156015784991437, -0.06897587223305228, 0.02982740420888747, -1.60226806640625, -0.38200561523437504, 10.632689208984376
1520530308191934469, 0.1227717262526529, -0.07483482663122659, 0.02769687533682408, -1.560355224609375, -0.360450439453125, 10.630294189453126
1520530308196949469, 0.11664645574547064, -0.08415589044650393, 0.0290284558818637, -1.47772705078125, -0.37242553710937504, 10.63388671875
1520530308201966469, 0.10998855302027255, -0.09108010928070995, 0.0290284558818637, -1.4250366210937502, -0.36404296875000003, 10.624306640625
1520530308206981469, 0.10679275971217746, -0.09693906367888427, 0.02769687533682408, -1.407073974609375, -0.34129028320312504, 10.594368896484376
1520530308211997469, 0.10146643753201898, -0.10013485698697937, 0.026631610900792385, -1.4130615234375001, -0.3209326171875, 10.515333251953125
1520530308217014469, 0.09560748313384466, -0.0982706442239239, 0.02929477199087162, -1.3555810546875, -0.30177246093750004, 10.496173095703126
1520530308222029469, 0.09214537371674165, -0.09294432204376542, 0.031158984753927088, -1.32444580078125, -0.24069946289062502, 10.481802978515626
1520530308227046469, 0.09081379317170203, -0.08468852266451977, 0.032756881407974635, -1.35797607421875, -0.1676513671875, 10.391989746093751
1520530308232062469, 0.0916127414987258, -0.07403587830420283, 0.038615835806148954, -1.332828369140625, -0.15567626953125, 10.342891845703125
1520530308237077469, 0.09081379317170203, -0.05992112452678287, 0.04607268685837083, -1.33402587890625, -0.15687377929687502, 10.27702880859375
1520530308242094469, 0.09028116095368618, -0.045540054640354974, 0.051665325147537224, -1.32444580078125, -0.1484912109375, 10.247091064453125
1520530308247109469, 0.08921589651765449, -0.027430559227816155, 0.05938849230876701, -1.427431640625, -0.1580712890625, 10.153685302734376
1520530308252126469, 0.0926780059347575, -0.010918960469324878, 0.06524744670694134, -1.55197265625, -0.18202148437500001, 10.069859619140626
1520530308257141469, 0.09614011535186051, 0.00692421883420602, 0.06604639503396512, -1.59747802734375, -0.27542724609375, 10.0638720703125
1520530308262157469, 0.09800432811491597, 0.022370553156665602, 0.06791060779702057, -1.64537841796875, -0.310155029296875, 10.053094482421875
1520530308267175469, 0.09800432811491597, 0.03675162304309349, 0.06737797557900473, -1.6130456542968752, -0.384400634765625, 10.09740234375
1520530308272190469, 0.10359696640408238, 0.03834951969714103, 0.06657902725198096, -1.465751953125, -0.44068359375000005, 10.27702880859375
1520530308277206469, 0.1027980180770586, 0.029561088099879545, 0.06737797557900473, -1.40108642578125, -0.44307861328125003, 10.39677978515625
1520530308282221469, 0.10146643753201898, 0.012250541014364496, 0.06551376281594927, -1.32444580078125, -0.46343627929687503, 10.424322509765625
1520530308287237469, 0.10226538585904275, -0.003195793308095086, 0.06578007892495719, -1.24780517578125, -0.4167333984375, 10.508148193359375
1520530308292254469, 0.10226538585904275, -0.02077265650261806, 0.06418218227090965, -1.1651770019531251, -0.34727783203125, 10.563233642578126
1520530308297269469, 0.10492854694912199, -0.03888215191515688, 0.06631271114297303, -1.1819421386718751, -0.247884521484375, 10.585986328125001
1520530308302286469, 0.10705907582118539, -0.050866376820513454, 0.06631271114297303, -1.17116455078125, -0.17962646484375, 10.5907763671875
1520530308307302469, 0.10865697247523293, -0.060720072853806636, 0.06950850445106813, -1.146016845703125, -0.1389111328125, 10.508148193359375
1520530308312316469, 0.1139832946553914, -0.06551376281594927, 0.07137271721412358, -1.1472143554687502, -0.101788330078125, 10.53569091796875
1520530308317334469, 0.11930961683554989, -0.06897587223305228, 0.07350324608618698, -1.120869140625, -0.077838134765625, 10.527308349609376
1520530308322350469, 0.12223909403463704, -0.06844324001503643, 0.07616640717626622, -1.1831396484375, -0.039517822265625, 10.477012939453125
1520530308327366469, 0.12809804843281136, -0.06311691783487795, 0.0759000910672583, -1.2633728027343751, -0.0622705078125, 10.4183349609375
1520530308332382469, 0.12969594508685892, -0.05539375067364816, 0.07483482663122659, -1.325643310546875, -0.09340576171875001, 10.352471923828125
1520530308337397469, 0.13209279006793023, -0.046605319076386674, 0.0737695621951949, -1.4418017578125, -0.137713623046875, 10.3225341796875
1520530308342414469, 0.13981595722916002, -0.03328951362599048, 0.07057376888709982, -1.5759228515625001, -0.223934326171875, 10.29139892578125
1520530308347429469, 0.14434333108229472, -0.01944107595757844, 0.06471481448892549, -1.64537841796875, -0.305364990234375, 10.3033740234375
1520530308352446469, 0.14487596330031058, -0.008788431597261486, 0.05725796343670363, -1.7196240234375, -0.346080322265625, 10.272238769531251
1520530308357460469, 0.14700649217237396, -0.00026631610900792384, 0.04767058351241837, -1.657353515625, -0.42032592773437505, 10.308164062500001
1520530308362477469, 0.1483380727174136, 0.0023968449810713144, 0.04154531300523612, -1.589095458984375, -0.449066162109375, 10.400372314453126
1520530308367493469, 0.14700649217237396, -0.0007989483270237715, 0.03142530086293501, -1.5711328125000001, -0.437091064453125, 10.44228515625
1520530308372509469, 0.14620754384535017, -0.003728425526110934, 0.0234358175926973, -1.56873779296875, -0.42152343750000004, 10.48300048828125
1520530308377526469, 0.14594122773634227, -0.007723167161229791, 0.01597896654047543, -1.4765295410156252, -0.41912841796875, 10.473420410156251
1520530308382542469, 0.14034858944717588, -0.015446334322459582, 0.01038632825130903, -1.4214440917968751, -0.354462890625, 10.469827880859375
1520530308387557469, 0.13768542835709663, -0.025033714246744842, 0.006125270507182248, -1.3962963867187501, -0.35206787109375004, 10.522518310546875
1520530308392573469, 0.13582121559404114, -0.03249056529896671, 0.0010652644360316954, -1.3460009765625, -0.3448828125, 10.566826171875
1520530308397589469, 0.1307612095228906, -0.042077945223251964, -0.0005326322180158477, -1.34360595703125, -0.30177246093750004, 10.585986328125001
1520530308402606469, 0.12676646788777174, -0.0513990090385293, -0.0007989483270237715, -1.373543701171875, -0.307760009765625, 10.65544189453125
1520530308407621469, 0.11930961683554989, -0.061519021180830406, -0.00346210941710301, -1.349593505859375, -0.28740234375, 10.638676757812501
1520530308412636469, 0.11291803021935971, -0.06737797557900473, -0.007456851052221868, -1.4130615234375001, -0.32811767578125, 10.61233154296875
1520530308417654469, 0.1038632825130903, -0.07163903332313151, -0.010652644360316953, -1.46335693359375, -0.36284545898437504, 10.660231933593751
1520530308422670469, 0.09614011535186051, -0.07110640110511567, -0.017576863194522972, -1.5184423828125, -0.40475830078125, 10.600356445312501
1520530308427685469, 0.08815063208162278, -0.06578007892495719, -0.028762139772855775, -1.569935302734375, -0.47900390625, 10.541678466796876
1520530308432701469, 0.08069378102940092, -0.061519021180830406, -0.040480048569204424, -1.5232324218750002, -0.48139892578125004, 10.55724609375
1520530308437718469, 0.07030745277809189, -0.05912217619975909, -0.05486111845563231, -1.4992822265625, -0.506546630859375, 10.5907763671875
1520530308442733469, 0.05938849230876701, -0.06178533728983833, -0.06418218227090965, -1.469344482421875, -0.506546630859375, 10.593171386718751
1520530308447749469, 0.04873584794845006, -0.06524744670694134, -0.07776430383031376, -1.427431640625, -0.5053491210937501, 10.577603759765626
1520530308452765469, 0.036218990825077645, -0.07110640110511567, -0.09028116095368618, -1.380728759765625, -0.49337402343750003, 10.572813720703126
1520530308457782469, 0.026098978682776535, -0.0727042977591632, -0.10306433418606653, -1.42024658203125, -0.45026367187500005, 10.584788818359376
1520530308462797469, 0.016245282649483356, -0.0737695621951949, -0.1161138235274548, -1.450184326171875, -0.46104125976562504, 10.57640625
1520530308467814469, 0.00346210941710301, -0.06897587223305228, -0.13102752563189854, -1.427431640625, -0.44307861328125003, 10.49258056640625
1520530308472829469, -0.007723167161229791, -0.06311691783487795, -0.14700649217237396, -1.4130615234375001, -0.4646337890625, 10.472222900390625
1520530308477846469, -0.017044230976507126, -0.053529537910592694, -0.16058861373177807, -1.4226416015625, -0.43110351562500004, 10.4183349609375
1520530308482861469, -0.02849582366384785, -0.03888215191515688, -0.17283915474614256, -1.4813195800781251, -0.427510986328125, 10.32732421875
1520530308487877469, -0.037816887479125184, -0.02077265650261806, -0.18269285077943576, -1.4801220703125, -0.429906005859375, 10.223140869140625
1520530308492893469, -0.044741106313331204, 0.0005326322180158477, -0.19600865622983193, -1.4992822265625, -0.44786865234375, 10.159672851562501
1520530308497909469, -0.05459480234662439, 0.02476739813773692, -0.20932446168022814, -1.5232324218750002, -0.5029541015625, 10.038724365234376
1520530308502925469, -0.060720072853806636, 0.0569916473276957, -0.2213086865855847, -1.5328125000000001, -0.506546630859375, 9.923763427734375
1520530308507941469, -0.06950850445106813, 0.0860201032095594, -0.23542344036300467, -1.5244299316406251, -0.49217651367187504, 9.87945556640625
1520530308512956469, -0.07456851052221868, 0.11558119130943895, -0.2468750330503454, -1.4801220703125, -0.51732421875, 9.90340576171875
1520530308517974469, -0.08175904546543261, 0.14381069886427889, -0.2532666196665356, -1.427431640625, -0.51492919921875, 9.880653076171875
1520530308522989469, -0.08868326429963864, 0.16831178089300786, -0.25726136130165445, -1.3998889160156252, -0.47301635742187503, 9.89861572265625
1520530308528005469, -0.09400958647979711, 0.188818121286618, -0.2604571546097495, -1.37953125, -0.47062133789062505, 9.904603271484376
1520530308533022469, -0.10226538585904275, 0.20879182946221228, -0.2615224190457812, -1.3783337402343752, -0.43230102539062504, 9.981243896484376
1520530308538037469, -0.10865697247523293, 0.22610237654772733, -0.25965820628272573, -1.3867163085937502, -0.39996826171875, 10.049501953125
1520530308543054469, -0.11744540407249442, 0.23435817592697297, -0.25406556799355934, -1.3783337402343752, -0.35326538085937503, 10.1165625
1520530308548069469, -0.12144014570761327, 0.241282394761179, -0.2458097686143137, -1.359173583984375, -0.358055419921875, 10.16206787109375
1520530308553086469, -0.12783173232380343, 0.24740766526836125, -0.23728765312606015, -1.4262341308593751, -0.377215576171875, 10.2363134765625
1520530308558102469, -0.13768542835709663, 0.25433188410256724, -0.23089606650986996, -1.469344482421875, -0.305364990234375, 10.25786865234375
1520530308563117469, -0.14434333108229472, 0.25726136130165445, -0.2221076349126085, -1.490899658203125, -0.28979736328125, 10.369237060546876
1520530308568133469, -0.1510012338074928, 0.25379925188455144, -0.2122539388793153, -1.4346166992187501, -0.286204833984375, 10.467432861328126
1520530308573150469, -0.15792545264169883, 0.24394555585125824, -0.19867181731991118, -1.3615686035156251, -0.247884521484375, 10.484197998046875
1520530308578167469, -0.16138756205880184, 0.22983080207383827, -0.18029600579836444, -1.34360595703125, -0.204774169921875, 10.566826171875
1520530308583182469, -0.16325177482185732, 0.20985709389824397, -0.1600559815137622, -1.1448193359375, -0.008382568359375, 10.63628173828125
1520530308588199469, -0.16484967147590485, 0.18056232190737237, -0.12916331286884306, -0.9735754394531251, 0.27063720703125, 10.739267578125
1520530308593214469, -0.16405072314888108, 0.14460964719130265, -0.08708536764559109, -1.0669812011718751, 0.24668701171875002, 10.74884765625
1520530308598230469, -0.15952334929574638, 0.11478224298241517, -0.05219795736555307, -1.059796142578125, 0.22632934570312502, 10.68418212890625
1520530308603246469, -0.1510012338074928, 0.08735168375459902, -0.02476739813773692, -1.043031005859375, 0.3400927734375, 10.7632177734375
1520530308608261469, -0.14061490555618378, 0.05858954398174324, 0.0010652644360316954, -1.0298583984375, 0.40236328125000004, 10.779982910156251
1520530308613276469, -0.12916331286884306, 0.03249056529896671, 0.02689792700980031, -1.088536376953125, 0.42870849609375, 10.821895751953125
1520530308618294469, -0.11558119130943895, 0.010652644360316953, 0.04873584794845006, -1.1388317871093752, 0.43349853515625003, 10.825488281250001
1520530308623310469, -0.10412959862209822, -0.005326322180158476, 0.06311691783487795, -1.2214599609375, 0.41074584960937505, 10.811118164062501
1520530308628326469, -0.09001484484467825, -0.01651159875849128, 0.0737695621951949, -1.28373046875, 0.39038818359375, 10.745255126953126
1520530308633342469, -0.07803061993932169, -0.02210423704765768, 0.08016114881138507, -1.3100756835937502, 0.350870361328125, 10.814710693359375
1520530308638358469, -0.06285060172587002, -0.027963191445832, 0.080427464920393, -1.2693603515625, 0.33290771484375004, 10.757230224609376
1520530308643374469, -0.04953479627547384, -0.030093720317895395, 0.08229167768344847, -1.201102294921875, 0.279019775390625, 10.709329833984375
1520530308648390469, -0.031691616971942935, -0.028762139772855775, 0.08255799379245639, -1.159189453125, 0.238304443359375, 10.621911621093751
1520530308653406469, -0.014381069886427887, -0.02982740420888747, 0.08388957433749601, -1.17595458984375, 0.183218994140625, 10.547666015625001
1520530308658422469, -0.0010652644360316954, -0.031158984753927088, 0.0860201032095594, -1.124461669921875, 0.13412109375, 10.500963134765625
1520530308663439469, 0.01597896654047543, -0.03249056529896671, 0.08841694819063071, -1.10410400390625, 0.05987548828125, 10.510543212890626
1520530308668453469, 0.03382214584400633, -0.03542004249805387, 0.09560748313384466, -1.110091552734375, 0.017962646484375, 10.460247802734376
1520530308673469469, 0.051665325147537224, -0.03568635860706179, 0.10306433418606653, -1.1520043945312501, -0.06346801757812501, 10.407557373046876
1520530308678486469, 0.06897587223305228, -0.03595267471606972, 0.10998855302027255, -1.210682373046875, -0.12094848632812501, 10.371632080078125
1520530308683502469, 0.08788431597261487, -0.03195793308095086, 0.11345066243737556, -1.277742919921875, -0.17603393554687502, 10.316546630859376
1520530308688518469, 0.10546117916713783, -0.023968449810713145, 0.11371697854638348, -1.350791015625, -0.229921875, 10.29139892578125
1520530308693533469, 0.12570120345174005, -0.014381069886427887, 0.10892328858424084, -1.43701171875, -0.30177246093750004, 10.32732421875
1520530308698550469, 0.1430117505372551, -0.007190534943213944, 0.10253170196805068, -1.4932946777343752, -0.38200561523437504, 10.308164062500001
1520530308703566469, 0.1584580848597147, 0.00346210941710301, 0.09773801200590805, -1.5328125000000001, -0.41433837890625, 10.362052001953126
1520530308708582469, 0.1744370514001901, 0.012783173232380344, 0.08761799986360694, -1.55197265625, -0.48259643554687504, 10.436297607421876
1520530308713597469, 0.1874865407415784, 0.015180018213451659, 0.07350324608618698, -1.663341064453125, -0.5221142578125, 10.5045556640625
1520530308718613469, 0.1965412884478478, 0.015180018213451659, 0.05512743456464023, -1.6609460449218751, -0.55324951171875, 10.614726562500001
1520530308723630469, 0.2021339267370142, 0.009054747706269411, 0.04234426133225989, -1.6657360839843751, -0.587977294921875, 10.76082275390625
1520530308728645469, 0.20825919724419645, -0.0055926382891664005, 0.02822950755483993, -1.599873046875, -0.5736071777343751, 10.824290771484376
1520530308733662469, 0.20985709389824397, -0.027963191445832, 0.012783173232380344, -1.593885498046875, -0.5269042968750001, 10.970386962890625
1520530308738678469, 0.21065604222526776, -0.050866376820513454, 0.001597896654047543, -1.598675537109375, -0.49097900390625004, 10.9835595703125
1520530308743693469, 0.21065604222526776, -0.07163903332313151, -0.007723167161229791, -1.6310083007812501, -0.439486083984375, 11.005114746093751
1520530308748710469, 0.20879182946221228, -0.0916127414987258, -0.017044230976507126, -1.675316162109375, -0.374820556640625, 11.0314599609375
1520530308753726469, 0.2077265650261806, -0.10705907582118539, -0.02556634646476069, -1.6334033203125, -0.28500732421875, 10.988349609375
1520530308758741469, 0.2045307717180855, -0.12037488127158158, -0.023968449810713145, -1.603465576171875, -0.24189697265625001, 10.929671630859376
1520530308763757469, 0.20133497840999043, -0.12969594508685892, -0.021038972611625982, -1.6010705566406251, -0.188009033203125, 10.800340576171875
1520530308768773469, 0.19867181731991118, -0.1339570028309857, -0.01864212763055467, -1.53999755859375, -0.17603393554687502, 10.726094970703125
1520530308773789469, 0.1976065528838795, -0.13555489948503324, -0.013582121559404116, -1.4226416015625, -0.10538085937500001, 10.643466796875
1520530308778805469, 0.1965412884478478, -0.13662016392106494, -0.0029294771990871623, -1.312470703125, -0.022752685546875002, 10.568023681640625
1520530308783821469, 0.19361181124876062, -0.13821806057511246, 0.010918960469324878, -1.2202624511718752, 0.0059875488281250005, 10.541678466796876
1520530308788837469, 0.19361181124876062, -0.1419464861012234, 0.024501082028728992, -1.13763427734375, 0.067060546875, 10.44947021484375
1520530308793852469, 0.19148128237669723, -0.1440770149732868, 0.04420847409531536, -1.044228515625, 0.17603393554687502, 10.4470751953125
1520530308798869469, 0.18855180517761008, -0.1483380727174136, 0.06764429168801266, -0.980760498046875, 0.28021728515625, 10.394384765625
1520530308803886469, 0.19068233404967347, -0.1510012338074928, 0.09454221869781296, -0.9795629882812501, 0.338895263671875, 10.394384765625
1520530308808901469, 0.1909486501586814, -0.15393071100657998, 0.11824435239951818, -0.978365478515625, 0.34248779296875004, 10.45426025390625
1520530308813916469, 0.1920139145947131, -0.16032229762277014, 0.14381069886427889, -1.005908203125, 0.35326538085937503, 10.5237158203125
1520530308818934469, 0.1898833857226497, -0.16405072314888108, 0.1619201942768177, -1.0585986328125, 0.32213012695312504, 10.6290966796875
1520530308823950469, 0.1856223279785229, -0.16724651645697616, 0.17576863194522974, -1.150806884765625, 0.281414794921875, 10.6578369140625
1520530308828966469, 0.17976337358034858, -0.16511598758491278, 0.18508969576050707, -1.251397705078125, 0.21674926757812502, 10.615924072265626
1520530308833981469, 0.1773665285992773, -0.16325177482185732, 0.18908443739562592, -1.28133544921875, 0.19160156250000002, 10.606343994140625
1520530308838998469, 0.1720402064191188, -0.16138756205880184, 0.18855180517761008, -1.3064831542968751, 0.1580712890625, 10.621911621093751
1520530308844012469, 0.16671388423896033, -0.15712650431467506, 0.185356011869515, -1.3064831542968751, 0.09819580078125001, 10.656639404296875
1520530308849029469, 0.1600559815137622, -0.1520664982435245, 0.1800296896893565, -1.325643310546875, 0.049097900390625004, 10.621911621093751
1520530308854045469, 0.15472965933360375, -0.1475391243903898, 0.17496968361820597, -1.2801379394531252, -0.00239501953125, 10.613529052734375
1520530308859062469, 0.1475391243903898, -0.14274543442824716, 0.16777914867499202, -1.2549902343750001, -0.06945556640625, 10.553653564453125
1520530308864077469, 0.13795174446610456, -0.13662016392106494, 0.1629854587128494, -1.3172607421875, -0.085023193359375, 10.48300048828125
1520530308869093469, 0.12942962897785099, -0.12676646788777174, 0.1552622915516196, -1.3352233886718752, -0.162861328125, 10.431507568359375
1520530308874110469, 0.12037488127158158, -0.11478224298241517, 0.14940333715344528, -1.32205078125, -0.17962646484375, 10.394384765625
1520530308879126469, 0.11025486912928047, -0.09906959255094767, 0.14327806664626302, -1.3831237792968751, -0.21195922851562501, 10.381212158203125
1520530308884141469, 0.10120012142301106, -0.0849548387735277, 0.1352885833760253, -1.4166540527343752, -0.259859619140625, 10.369237060546876
1520530308889158469, 0.0916127414987258, -0.07563377495825037, 0.12783173232380343, -1.4046789550781251, -0.296982421875, 10.420729980468751
1520530308894173469, 0.08069378102940092, -0.06631271114297303, 0.12037488127158158, -1.4513818359375001, -0.29937744140625, 10.356064453125
1520530308899190469, 0.0681769239060285, -0.05299690569257685, 0.1161138235274548, -1.43701171875, -0.32332763671875003, 10.275831298828125
1520530308904206469, 0.05539375067364816, -0.04154531300523612, 0.10998855302027255, -1.4609619140625, -0.34368530273437503, 10.306966552734375
1520530308909221469, 0.0468716351853946, -0.027963191445832, 0.10253170196805068, -1.495689697265625, -0.34368530273437503, 10.318941650390625
1520530308914237469, 0.035153726389045944, -0.008788431597261486, 0.09640643146086843, -1.462159423828125, -0.317340087890625, 10.3129541015625
1520530308919254469, 0.026098978682776535, 0.004793689962142629, 0.08788431597261487, -1.4178515625, -0.32811767578125, 10.32732421875
1520530308924270469, 0.01597896654047543, 0.017044230976507126, 0.08016114881138507, -1.37953125, -0.319735107421875, 10.391989746093751
1520530308929286469, 0.004793689962142629, 0.025832662573768612, 0.0737695621951949, -1.316063232421875, -0.305364990234375, 10.41114990234375
1520530308934301469, -0.00346210941710301, 0.0290284558818637, 0.06977482056007604, -1.25738525390625, -0.286204833984375, 10.491383056640625
1520530308939318469, -0.010120012142301106, 0.027963191445832, 0.06711165946999681, -1.217867431640625, -0.24908203125, 10.515333251953125
1520530308944332469, -0.017044230976507126, 0.02210423704765768, 0.06471481448892549, -1.174757080078125, -0.21315673828125, 10.50695068359375
1520530308949349469, -0.024501082028728992, 0.018908443739562592, 0.061519021180830406, -1.172362060546875, -0.199984130859375, 10.48300048828125
1520530308954364469, -0.02769687533682408, 0.01464738599543581, 0.0580569117637274, -1.11847412109375, -0.17244140625, 10.445877685546876
1520530308959381469, -0.031158984753927088, 0.004793689962142629, 0.05486111845563231, -1.1088940429687502, -0.1484912109375, 10.448272705078125
1520530308964397469, -0.0346210941710301, -0.00026631610900792384, 0.05299690569257685, -1.1053015136718751, -0.147293701171875, 10.471025390625
1520530308969415469, -0.0346210941710301, -0.002663161090079238, 0.05273058958356892, -1.110091552734375, -0.12214599609375, 10.388397216796875
1520530308974429469, -0.03328951362599048, -0.0055926382891664005, 0.05246427347456099, -1.119671630859375, -0.085023193359375, 10.383607177734376
1520530308979445469, -0.02982740420888747, -0.007723167161229791, 0.04926848016646591, -1.167572021484375, -0.08382568359375, 10.3512744140625
1520530308984462469, -0.02716424311880823, -0.005060006071150553, 0.043143209659283664, -1.208287353515625, -0.111368408203125, 10.360854492187501
1520530308989478469, -0.021571604829641832, -0.005326322180158476, 0.03834951969714103, -1.1903247070312502, -0.085023193359375, 10.402767333984375
1520530308994493469, -0.017044230976507126, -0.003195793308095086, 0.03249056529896671, -1.210682373046875, -0.113763427734375, 10.399174804687501
1520530308999509469, -0.008522115488253563, -0.004793689962142629, 0.02822950755483993, -1.229842529296875, -0.144898681640625, 10.44947021484375
1520530309004525469, -0.004527373853134706, -0.008788431597261486, 0.023968449810713145, -1.196312255859375, -0.154478759765625, 10.46863037109375
1520530309009542469, 0.00026631610900792384, -0.013049489341388268, 0.017576863194522972, -1.179547119140625, -0.1149609375, 10.453062744140626
1520530309014557469, 0.007989483270237714, -0.01864212763055467, 0.01384843766841204, -1.1256591796875, -0.16166381835937502, 10.453062744140626
1520530309019574469, 0.014381069886427887, -0.02556634646476069, 0.007190534943213944, -1.129251708984375, -0.142503662109375, 10.457852783203126
1520530309024590469, 0.02077265650261806, -0.031158984753927088, 0.0021305288720633907, -1.088536376953125, -0.137713623046875, 10.441087646484375
1520530309029606469, 0.02476739813773692, -0.039681100242180654, -0.0029294771990871623, -1.090931396484375, -0.10538085937500001, 10.429112548828126
1520530309034622469, 0.02929477199087162, -0.04527373853134705, -0.010652644360316953, -1.1160791015625, -0.124541015625, 10.496173095703126
1520530309039638469, 0.03328951362599048, -0.051665325147537224, -0.01651159875849128, -1.076561279296875, -0.124541015625, 10.510543212890626
1520530309044653469, 0.03595267471606972, -0.05672533121868778, -0.02290318537468145, -1.0370434570312501, -0.116158447265625, 10.484197998046875
1520530309049669469, 0.0391484680241648, -0.0569916473276957, -0.02982740420888747, -1.0370434570312501, -0.092208251953125, 10.41114990234375
1520530309054686469, 0.04181162911424404, -0.05379585401960062, -0.035153726389045944, -1.016685791015625, -0.045505371093750004, 10.34887939453125
1520530309059702469, 0.04154531300523612, -0.04527373853134705, -0.03834951969714103, -0.987945556640625, 0.009580078125, 10.287806396484376
1520530309064717469, 0.04287689355027574, -0.030892668644919165, -0.039681100242180654, -0.9711804199218751, 0.0383203125, 10.227930908203126
1520530309069733469, 0.04500742242233913, -0.01997370817559429, -0.03728425526110934, -0.9568103027343751, 0.087418212890625, 10.18601806640625
1520530309074750469, 0.04793689962142629, -0.006125270507182248, -0.03249056529896671, -0.9148974609375, 0.135318603515625, 10.2315234375
1520530309079766469, 0.047404267403410444, 0.005326322180158476, -0.023968449810713145, -0.8861572265625001, 0.159268798828125, 10.292596435546875
1520530309084782469, 0.04793689962142629, 0.012516857123372421, -0.009853696033293183, -0.9196875, 0.19040405273437502, 10.347681884765626
1520530309089797469, 0.04926848016646591, 0.015180018213451659, 0.004261057744126781, -0.9675878906250001, 0.173638916015625, 10.453062744140626
1520530309094812469, 0.04793689962142629, 0.01464738599543581, 0.015180018213451659, -0.959205322265625, 0.17244140625, 10.553653564453125
1520530309099830469, 0.04527373853134705, 0.012250541014364496, 0.03062635253591124, -0.95082275390625, 0.1389111328125, 10.656639404296875
1520530309104845469, 0.04074636467821235, 0.0007989483270237715, 0.04420847409531536, -0.9927355957031251, 0.11735595703125, 10.759625244140626
1520530309109862469, 0.03808320358813311, -0.015180018213451659, 0.051665325147537224, -0.9927355957031251, 0.09580078125000001, 10.8685986328125
1520530309114876469, 0.033555829734998405, -0.03302319751698256, 0.05832322787273532, -1.057401123046875, 0.09580078125000001, 10.95721435546875
1520530309119893469, 0.02689792700980031, -0.05273058958356892, 0.0636495500528938, -1.08015380859375, 0.10538085937500001, 11.075767822265625
1520530309124909469, 0.020240024284602212, -0.07483482663122659, 0.06631271114297303, -1.114881591796875, 0.104183349609375, 11.0697802734375
1520530309129926469, 0.014913702104443736, -0.09534116702483673, 0.06684534336098888, -1.1567944335937501, 0.09580078125000001, 11.033854980468751
1520530309134942469, 0.007456851052221868, -0.11291803021935971, 0.06657902725198096, -1.2022998046875, 0.067060546875, 11.018287353515625
1520530309139958469, 0.0005326322180158477, -0.12756541621479553, 0.06418218227090965, -1.2250524902343751, 0.0814306640625, 11.00032470703125
1520530309144972469, -0.004261057744126781, -0.1384843766841204, 0.06205165339884625, -1.184337158203125, 0.085023193359375, 10.898536376953125
1520530309149989469, -0.007190534943213944, -0.1440770149732868, 0.061519021180830406, -1.153201904296875, 0.07304809570312501, 10.79914306640625
1520530309155006469, -0.012250541014364496, -0.1472728082813819, 0.0580569117637274, -1.1567944335937501, 0.049097900390625004, 10.666219482421875
1520530309160021469, -0.012250541014364496, -0.14460964719130265, 0.05432848623761646, -1.140029296875, -0.06346801757812501, 10.529703369140625
1520530309165036469, -0.01464738599543581, -0.13768542835709663, 0.04980111238448176, -1.14242431640625, -0.130528564453125, 10.44228515625
1520530309170054469, -0.015446334322459582, -0.12756541621479553, 0.0391484680241648, -1.20948486328125, -0.16645385742187502, 10.323731689453126
1520530309175070469, -0.015712650431467506, -0.11371697854638348, 0.026098978682776535, -1.282532958984375, -0.30296997070312504, 10.26265869140625
1520530309180086469, -0.016245282649483356, -0.10093380531400313, 0.016777914867499202, -1.2789404296875, -0.33290771484375004, 10.195598144531251
1520530309185102469, -0.014913702104443736, -0.08894958040864656, 0.007456851052221868, -1.2849279785156251, -0.38080810546875005, 10.218350830078126
1520530309190117469, -0.012516857123372421, -0.08229167768344847, -0.004261057744126781, -1.330433349609375, -0.45984375, 10.242301025390626
1520530309195133469, -0.008522115488253563, -0.07749798772130584, -0.015446334322459582, -1.3316308593750001, -0.47062133789062505, 10.259066162109375
1520530309200149469, -0.006125270507182248, -0.07137271721412358, -0.023968449810713145, -1.32205078125, -0.48020141601562505, 10.25068359375
1520530309205167469, 0.001331580545039619, -0.06950850445106813, -0.031691616971942935, -1.239422607421875, -0.49337402343750003, 10.20038818359375
1520530309210182469, 0.005858954398174325, -0.06870955612404435, -0.036218990825077645, -1.217867431640625, -0.45146118164062504, 10.170450439453125
1520530309215197469, 0.009587379924285258, -0.06977482056007604, -0.03941478413317273, -1.1436218261718751, -0.417930908203125, 10.18601806640625
1520530309220214469, 0.012250541014364496, -0.07536745884924245, -0.043143209659283664, -1.1005114746093752, -0.41194335937500004, 10.221943359375
1520530309225230469, 0.022636869265673525, -0.08522115488253562, -0.04367584187729951, -1.04662353515625, -0.367635498046875, 10.237510986328125
1520530309230245469, 0.027430559227816155, -0.09400958647979711, -0.040480048569204424, -1.0011181640625, -0.305364990234375, 10.279423828125001
1520530309235262469, 0.03542004249805387, -0.10492854694912199, -0.03328951362599048, -0.9496252441406251, -0.239501953125, 10.271041259765626
1520530309240277469, 0.03994741635118858, -0.11238539800134385, -0.030892668644919165, -0.95082275390625, -0.18082397460937502, 10.278226318359376
1520530309245293469, 0.04261057744126781, -0.11558119130943895, -0.02476739813773692, -0.9568103027343751, -0.149688720703125, 10.272238769531251
1520530309250309469, 0.0458063707493629, -0.11531487520043102, -0.015712650431467506, -0.9723779296875, -0.10059082031250001, 10.259066162109375
1520530309255326469, 0.04980111238448176, -0.11371697854638348, -0.007456851052221868, -0.9819580078125001, -0.05987548828125, 10.272238769531251
1520530309260342469, 0.05193164125654515, -0.10865697247523293, 0.002663161090079238, -1.004710693359375, -0.0431103515625, 10.25307861328125
1520530309265357469, 0.05299690569257685, -0.10199906975003482, 0.009321063815277334, -1.031055908203125, -0.050295410156250005, 10.20517822265625
1520530309270374469, 0.05219795736555307, -0.09614011535186051, 0.015180018213451659, -1.035845947265625, -0.026345214843750003, 10.21475830078125
1520530309275390469, 0.05379585401960062, -0.09241168982574957, 0.02210423704765768, -1.05620361328125, -0.001197509765625, 10.244696044921875
1520530309280405469, 0.0513990090385293, -0.08628641931856733, 0.030093720317895395, -0.99872314453125, -0.022752685546875002, 10.22433837890625
1520530309285422469, 0.05219795736555307, -0.0782969360483296, 0.0402137324601965, -1.038240966796875, -0.023950195312500002, 10.261461181640625
1520530309290438469, 0.05432848623761646, -0.07430219441321075, 0.05060006071150553, -1.0789562988281252, -0.013172607421875001, 10.260263671875
1520530309295453469, 0.05246427347456099, -0.07030745277809189, 0.06018744063579079, -1.1352392578125001, -0.028740234375, 10.28900390625
1520530309300469469, 0.04926848016646591, -0.06737797557900473, 0.06897587223305228, -1.0921289062500001, -0.0059875488281250005, 10.328521728515625
1520530309305485469, 0.04926848016646591, -0.06205165339884625, 0.07563377495825037, -1.0837463378906251, -0.020357666015625, 10.317744140625
1520530309310501469, 0.050067428493489684, -0.06205165339884625, 0.08175904546543261, -1.04183349609375, -0.028740234375, 10.299781494140625
1520530309315517469, 0.05060006071150553, -0.06178533728983833, 0.08655273542757524, -1.02267333984375, -0.026345214843750003, 10.339299316406251
1520530309320534469, 0.05326322180158477, -0.06178533728983833, 0.09134642538971788, -1.0298583984375, 0.001197509765625, 10.364447021484375
1520530309325549469, 0.05832322787273532, -0.06098638896281456, 0.09587379924285258, -1.009500732421875, -0.03113525390625, 10.311756591796875
1520530309330566469, 0.062317969507854176, -0.05832322787273532, 0.09773801200590805, -0.966390380859375, -0.020357666015625, 10.287806396484376
1520530309335581469, 0.06471481448892549, -0.05273058958356892, 0.10253170196805068, -0.9819580078125001, -0.0814306640625, 10.225535888671876
1520530309340598469, 0.07137271721412358, -0.05060006071150553, 0.10572749527614576, -0.9915380859375, -0.111368408203125, 10.1979931640625
1520530309345613469, 0.07749798772130584, -0.049002164057457984, 0.10892328858424084, -0.9651928710937501, -0.13651611328125002, 10.223140869140625
1520530309350629469, 0.08362325822848808, -0.048203215730434214, 0.111852765783328, -0.904119873046875, -0.159268798828125, 10.189610595703126
1520530309355646469, 0.0905474770626941, -0.04420847409531536, 0.11451592687340725, -0.980760498046875, -0.183218994140625, 10.215955810546875
1520530309360662469, 0.09427590258880504, -0.04287689355027574, 0.11478224298241517, -0.9340576171875, -0.209564208984375, 10.206375732421876
1520530309365676469, 0.10013485698697937, -0.037017939152101415, 0.11424961076439932, -0.9651928710937501, -0.19639160156250002, 10.17643798828125
1520530309370694469, 0.10572749527614576, -0.030093720317895395, 0.11132013356531216, -0.99393310546875, -0.149688720703125, 10.145302734375
1520530309375709469, 0.11318434632836763, -0.021305288720633905, 0.1094559208022567, -0.96998291015625, -0.135318603515625, 10.18601806640625
1520530309380725469, 0.12117382959860534, -0.008522115488253563, 0.10785802414820915, -0.9376501464843751, -0.12334350585937501, 10.233918457031251
1520530309385742469, 0.1227717262526529, 0.0055926382891664005, 0.1073253919301933, -0.9352551269531251, -0.140108642578125, 10.2075732421875
1520530309390758469, 0.12490225512471628, 0.016245282649483356, 0.10546117916713783, -0.91250244140625, -0.10298583984375001, 10.196795654296876
1520530309395772469, 0.12969594508685892, 0.028762139772855775, 0.10253170196805068, -0.89334228515625, -0.0718505859375, 10.199190673828125
1520530309400790469, 0.13422331893999362, 0.03834951969714103, 0.09960222476896352, -0.91729248046875, -0.05748046875, 10.221943359375
1520530309405806469, 0.13875069279312832, 0.04420847409531536, 0.09960222476896352, -0.9136999511718751, -0.053887939453125006, 10.248288574218751
1520530309410821469, 0.14008227333816795, 0.048203215730434214, 0.09853696033293181, -0.89813232421875, -0.025147705078125002, 10.290201416015625
1520530309415836469, 0.1440770149732868, 0.050067428493489684, 0.10013485698697937, -0.9053173828125001, -0.013172607421875001, 10.38719970703125
1520530309420853469, 0.14674017606336603, 0.05193164125654515, 0.10013485698697937, -0.8921447753906251, 0.009580078125, 10.378817138671875
1520530309425868469, 0.15020228548046904, 0.05406217012860854, 0.0972053797878922, -0.929267578125, 0.061072998046875, 10.364447021484375
1520530309430885469, 0.15259913046154036, 0.05992112452678287, 0.0926780059347575, -0.944835205078125, 0.06945556640625, 10.391989746093751
1520530309435902469, 0.15366439489757205, 0.061519021180830406, 0.08921589651765449, -0.9544152832031251, 0.07424560546875, 10.426717529296875
1520530309440918469, 0.1552622915516196, 0.06498113059793342, 0.08309062601047223, -0.9927355957031251, 0.058677978515625, 10.432705078125
1520530309445932469, 0.1555286076606275, 0.06657902725198096, 0.07403587830420283, -1.016685791015625, 0.082628173828125, 10.460247802734376
1520530309450950469, 0.15153386602550867, 0.06604639503396512, 0.0636495500528938, -1.01309326171875, 0.09340576171875001, 10.548863525390626
1520530309455966469, 0.1510012338074928, 0.06844324001503643, 0.05512743456464023, -0.942440185546875, 0.061072998046875, 10.512938232421876
1520530309460982469, 0.1507349176984849, 0.07297061386817114, 0.049002164057457984, -0.9136999511718751, 0.07065307617187501, 10.49258056640625
1520530309465997469, 0.14620754384535017, 0.07856325215733753, 0.046605319076386674, -0.887354736328125, 0.076640625, 10.487790527343751
1520530309471013469, 0.1440770149732868, 0.08388957433749601, 0.043143209659283664, -0.906514892578125, 0.09819580078125001, 10.48300048828125
1520530309476030469, 0.13901700890213625, 0.08708536764559109, 0.04234426133225989, -0.85023193359375, 0.0431103515625, 10.526110839843751
1520530309481046469, 0.1318264739589223, 0.08921589651765449, 0.0458063707493629, -0.808319091796875, 0.001197509765625, 10.5237158203125
1520530309486062469, 0.12463593901570835, 0.08708536764559109, 0.05060006071150553, -0.8346643066406251, -0.010777587890625, 10.546468505859375
1520530309491078469, 0.11584750741844686, 0.08335694211948017, 0.05486111845563231, -0.8813671875000001, -0.01916015625, 10.587183837890626
1520530309496093469, 0.11078750134729631, 0.07616640717626622, 0.05912217619975909, -0.89813232421875, -0.0718505859375, 10.63628173828125
1520530309501110469, 0.09853696033293181, 0.06524744670694134, 0.06311691783487795, -0.929267578125, -0.116158447265625, 10.711724853515626
1520530309506126469, 0.08628641931856733, 0.05486111845563231, 0.06684534336098888, -0.9903405761718751, -0.137713623046875, 10.74884765625
1520530309511142469, 0.07563377495825037, 0.04420847409531536, 0.06897587223305228, -1.011895751953125, -0.13172607421875002, 10.7296875
1520530309516157469, 0.060720072853806636, 0.031691616971942935, 0.06791060779702057, -1.0394384765625, -0.14130615234375002, 10.728489990234376
1520530309521174469, 0.04953479627547384, 0.01864212763055467, 0.06844324001503643, -1.0490185546875002, -0.1197509765625, 10.764415283203126
1520530309526190469, 0.039681100242180654, 0.006657902725198096, 0.06764429168801266, -1.026265869140625, -0.144898681640625, 10.690169677734376
1520530309531205469, 0.0290284558818637, -0.006391586616190172, 0.06684534336098888, -1.050216064453125, -0.10298583984375001, 10.642269287109375
1520530309536222469, 0.018375811521546746, -0.018109495412538822, 0.06338323394388587, -1.0394384765625, -0.13172607421875002, 10.591973876953126
1520530309541238469, 0.010918960469324878, -0.029561088099879545, 0.06338323394388587, -1.0669812011718751, -0.144898681640625, 10.623109130859376
1520530309546253469, 0.002663161090079238, -0.04181162911424404, 0.062317969507854176, -1.038240966796875, -0.12334350585937501, 10.605146484375
1520530309551270469, -0.001597896654047543, -0.05326322180158477, 0.0636495500528938, -1.0454260253906251, -0.1389111328125, 10.56922119140625
1520530309556286469, -0.005858954398174325, -0.06205165339884625, 0.06391586616190172, -1.038240966796875, -0.12094848632812501, 10.520123291015626
1520530309561302469, -0.006391586616190172, -0.06498113059793342, 0.06178533728983833, -1.052611083984375, -0.113763427734375, 10.493778076171875
1520530309566318469, -0.010918960469324878, -0.06418218227090965, 0.0569916473276957, -1.064586181640625, -0.11256591796875001, 10.429112548828126
1520530309571334469, -0.01038632825130903, -0.06178533728983833, 0.05033374460249761, -1.031055908203125, -0.10059082031250001, 10.41114990234375
1520530309576350469, -0.011451592687340724, -0.058855860090751166, 0.04447479020432328, -1.0023156738281251, -0.09580078125000001, 10.429112548828126
1520530309581366469, -0.010120012142301106, -0.05645901510967986, 0.0391484680241648, -0.9915380859375, -0.047900390625000004, 10.419532470703125
1520530309586382469, -0.007190534943213944, -0.04953479627547384, 0.033555829734998405, -0.9867480468750001, -0.01916015625, 10.44468017578125
1520530309591398469, -0.00692421883420602, -0.04367584187729951, 0.02716424311880823, -0.96998291015625, 0.00239501953125, 10.441087646484375
1520530309596413469, -0.005326322180158476, -0.039681100242180654, 0.02423476591972107, -0.944835205078125, 0.027542724609375003, 10.467432861328126
1520530309601430469, -0.0029294771990871623, -0.032756881407974635, 0.021571604829641832, -0.966390380859375, 0.0047900390625, 10.486593017578125
1520530309606446469, -0.004793689962142629, -0.02716424311880823, 0.019707392066586366, -0.901724853515625, 0.0143701171875, 10.503358154296876
1520530309611461469, -0.0007989483270237715, -0.021038972611625982, 0.02290318537468145, -0.8430468750000001, 0.04071533203125, 10.487790527343751
1520530309616477469, 0.004261057744126781, -0.016777914867499202, 0.025033714246744842, -0.8131091308593751, 0.07304809570312501, 10.450667724609376
1520530309621494469, 0.005326322180158476, -0.013582121559404116, 0.030892668644919165, -0.779578857421875, 0.086220703125, 10.443482666015626
1520530309626509469, 0.009587379924285258, -0.012783173232380344, 0.03648530693408557, -0.7771838378906251, 0.11256591796875001, 10.41114990234375
1520530309631526469, 0.014381069886427887, -0.010120012142301106, 0.04420847409531536, -0.699345703125, 0.132923583984375, 10.397977294921876
1520530309636541469, 0.02210423704765768, -0.0021305288720633907, 0.05113269292952138, -0.748443603515625, 0.16645385742187502, 10.335706787109375
1520530309641558469, 0.0290284558818637, 0.0029294771990871623, 0.06285060172587002, -0.781973876953125, 0.21555175781250002, 10.306966552734375
1520530309646573469, 0.037017939152101415, 0.008522115488253563, 0.07483482663122659, -0.8071215820312501, 0.243094482421875, 10.300979003906251
1520530309651590469, 0.04527373853134705, 0.01597896654047543, 0.08575378710055148, -0.814306640625, 0.22752685546875, 10.34408935546875
1520530309656606469, 0.05326322180158477, 0.025300030355752765, 0.09294432204376542, -0.8454418945312501, 0.20357666015625, 10.35845947265625
1520530309661622469, 0.06205165339884625, 0.03062635253591124, 0.10253170196805068, -0.899329833984375, 0.20118164062500002, 10.330916748046876
1520530309666638469, 0.06950850445106813, 0.037816887479125184, 0.11025486912928047, -0.9268725585937501, 0.164058837890625, 10.40396484375
1520530309671653469, 0.07536745884924245, 0.04340952576829159, 0.11424961076439932, -0.980760498046875, 0.147293701171875, 10.421927490234376
1520530309676669469, 0.08122641324741676, 0.04713795129440252, 0.11318434632836763, -1.04183349609375, 0.137713623046875, 10.45426025390625
1520530309681685469, 0.0860201032095594, 0.05060006071150553, 0.108390656366225, -1.086141357421875, 0.092208251953125, 10.4374951171875
1520530309686701469, 0.09081379317170203, 0.05379585401960062, 0.10146643753201898, -1.098116455078125, 0.0383203125, 10.467432861328126
1520530309691718469, 0.09400958647979711, 0.05566006678265608, 0.09587379924285258, -1.090931396484375, 0.03592529296875, 10.500963134765625
1520530309696732469, 0.09640643146086843, 0.05992112452678287, 0.08681905153658317, -1.12805419921875, 0.032332763671875, 10.522518310546875
1520530309701749469, 0.0972053797878922, 0.062317969507854176, 0.07563377495825037, -1.1520043945312501, 0.00718505859375, 10.56443115234375
1520530309706765469, 0.09693906367888427, 0.06578007892495719, 0.07084008499610774, -1.1567944335937501, 0.026345214843750003, 10.58838134765625
1520530309711781469, 0.09853696033293181, 0.06764429168801266, 0.06551376281594927, -1.119671630859375, 0.0335302734375, 10.562036132812501
1520530309716798469, 0.09454221869781296, 0.06791060779702057, 0.060720072853806636, -1.098116455078125, 0.044307861328125, 10.607541503906251
1520530309721814469, 0.09108010928070995, 0.06870955612404435, 0.05779059565471947, -1.09452392578125, 0.022752685546875002, 10.608739013671876
1520530309726831469, 0.08522115488253562, 0.06711165946999681, 0.05645901510967986, -1.0837463378906251, 0.028740234375, 10.625504150390626
1520530309731846469, 0.07989483270237716, 0.06471481448892549, 0.05779059565471947, -1.076561279296875, 0.045505371093750004, 10.618319091796875
1520530309736862469, 0.07563377495825037, 0.06205165339884625, 0.05912217619975909, -1.107696533203125, 0.045505371093750004, 10.61233154296875
1520530309741878469, 0.07137271721412358, 0.0569916473276957, 0.06338323394388587, -1.090931396484375, 0.052690429687500005, 10.608739013671876
1520530309746892469, 0.06444849837991756, 0.050067428493489684, 0.06711165946999681, -1.0777587890625, 0.029937744140625, 10.600356445312501
1520530309751909469, 0.06018744063579079, 0.04447479020432328, 0.07057376888709982, -1.071771240234375, 0.051492919921875005, 10.56922119140625
1520530309756926469, 0.05406217012860854, 0.04154531300523612, 0.07403587830420283, -1.050216064453125, 0.06466552734375, 10.56922119140625
1520530309761941469, 0.04633900296737875, 0.038615835806148954, 0.07962851659336923, -1.0454260253906251, 0.044307861328125, 10.541678466796876
1520530309766958469, 0.04287689355027574, 0.032756881407974635, 0.08415589044650393, -1.0538085937500001, 0.03113525390625, 10.494975585937501
1520530309771973469, 0.03755057137011726, 0.02716424311880823, 0.08868326429963864, -1.059796142578125, 0.041912841796875, 10.520123291015626
1520530309776990469, 0.03408846195301425, 0.021837920938649755, 0.09187905760773372, -1.07296875, 0.047900390625000004, 10.524913330078126
1520530309782006469, 0.030892668644919165, 0.019707392066586366, 0.09454221869781296, -1.11847412109375, 0.008382568359375, 10.472222900390625
1520530309787021469, 0.025300030355752765, 0.01944107595757844, 0.0950748509158288, -1.124461669921875, 0.00718505859375, 10.466235351562501
1520530309792038469, 0.02210423704765768, 0.01864212763055467, 0.09321063815277335, -1.141226806640625, 0.04071533203125, 10.448272705078125
1520530309797052469, 0.021837920938649755, 0.018109495412538822, 0.08948221262666241, -1.17595458984375, 0.0335302734375, 10.424322509765625
1520530309802070469, 0.018908443739562592, 0.01731054708551505, 0.08468852266451977, -1.1735595703125001, 0.01916015625, 10.40156982421875
1520530309807086469, 0.015712650431467506, 0.020506340393610135, 0.07749798772130584, -1.196312255859375, -0.001197509765625, 10.360854492187501
1520530309812101469, 0.014381069886427887, 0.02210423704765768, 0.07084008499610774, -1.239422607421875, 0.0143701171875, 10.360854492187501
1520530309817119469, 0.013315805450396193, 0.02636529479178446, 0.06471481448892549, -1.260977783203125, 0.008382568359375, 10.36564453125
1520530309822134469, 0.011984224905356573, 0.034354778062022175, 0.0580569117637274, -1.2370275878906252, -0.027542724609375003, 10.338101806640626
1520530309827150469, 0.009054747706269411, 0.04500742242233913, 0.05219795736555307, -1.2214599609375, 0.009580078125, 10.345286865234376
1520530309832167469, 0.009054747706269411, 0.05725796343670363, 0.045540054640354974, -1.1951147460937501, 0.023950195312500002, 10.332114257812501
1520530309837182469, 0.007723167161229791, 0.0692421883420602, 0.04447479020432328, -1.1819421386718751, 0.0, 10.314151611328125
1520530309842198469, 0.005060006071150553, 0.080427464920393, 0.04181162911424404, -1.17116455078125, 0.01916015625, 10.321336669921875
1520530309847213469, 0.006125270507182248, 0.0905474770626941, 0.04234426133225989, -1.110091552734375, 0.017962646484375, 10.31055908203125
1520530309852229469, 0.003994741635118857, 0.09400958647979711, 0.04154531300523612, -1.12326416015625, -0.0047900390625, 10.34408935546875
1520530309857246469, 0.0023968449810713144, 0.09587379924285258, 0.04367584187729951, -1.1088940429687502, -0.017962646484375, 10.414742431640626
1520530309862260469, 0.0, 0.09614011535186051, 0.04713795129440252, -1.095721435546875, 0.02155517578125, 10.471025390625
1520530309867278469, -0.0029294771990871623, 0.09294432204376542, 0.047404267403410444, -1.088536376953125, 0.003592529296875, 10.480605468750001
1520530309872293469, -0.0029294771990871623, 0.08681905153658317, 0.04633900296737875, -1.0621911621093751, 0.010777587890625, 10.477012939453125
1520530309877310469, -0.004527373853134706, 0.08468852266451977, 0.05219795736555307, -1.0921289062500001, 0.022752685546875002, 10.55964111328125
1520530309882326469, -0.006125270507182248, 0.0782969360483296, 0.056192699000671927, -1.0490185546875002, 0.015567626953125, 10.5428759765625
1520530309887341469, -0.007456851052221868, 0.07403587830420283, 0.05725796343670363, -1.064586181640625, 0.01676513671875, 10.515333251953125
1520530309892358469, -0.01038632825130903, 0.07190534943213944, 0.05858954398174324, -1.13284423828125, 0.07065307617187501, 10.479407958984375
1520530309897373469, -0.010652644360316953, 0.07004113666908397, 0.060720072853806636, -1.134041748046875, 0.055085449218750006, 10.4470751953125
1520530309902390469, -0.011984224905356573, 0.07137271721412358, 0.05965480841777494, -1.110091552734375, 0.037122802734375, 10.3895947265625
1520530309907406469, -0.012783173232380344, 0.07217166554114736, 0.05912217619975909, -1.140029296875, 0.013172607421875001, 10.360854492187501
1520530309912421469, -0.011451592687340724, 0.06950850445106813, 0.05752427954571155, -1.155596923828125, 0.034727783203125, 10.357261962890625
1520530309917438469, -0.012783173232380344, 0.0681769239060285, 0.05539375067364816, -1.134041748046875, 0.009580078125, 10.413544921875001
1520530309922453469, -0.012250541014364496, 0.06551376281594927, 0.05273058958356892, -1.1651770019531251, -0.010777587890625, 10.393187255859376
1520530309927470469, -0.010120012142301106, 0.06045375674479871, 0.0513990090385293, -1.1603869628906252, -0.034727783203125, 10.390792236328126
1520530309932486469, -0.011185276578332801, 0.05832322787273532, 0.044741106313331204, -1.1867321777343751, -0.032332763671875, 10.421927490234376
1520530309937502469, -0.01038632825130903, 0.05459480234662439, 0.04074636467821235, -1.17116455078125, -0.051492919921875005, 10.426717529296875
1520530309942518469, -0.00692421883420602, 0.05113269292952138, 0.03755057137011726, -1.213077392578125, -0.044307861328125, 10.395582275390625
1520530309947532469, -0.007456851052221868, 0.050866376820513454, 0.030892668644919165, -1.26217529296875, -0.061072998046875, 10.455457763671875
1520530309952549469, -0.008522115488253563, 0.050866376820513454, 0.02636529479178446, -1.265767822265625, -0.07424560546875, 10.44947021484375
1520530309957565469, -0.00825579937924564, 0.05672533121868778, 0.01864212763055467, -1.2789404296875, -0.0718505859375, 10.474617919921876
1520530309962581469, -0.009853696033293183, 0.05938849230876701, 0.012250541014364496, -1.277742919921875, -0.101788330078125, 10.471025390625
1520530309967597469, -0.01038632825130903, 0.06178533728983833, 0.005858954398174325, -1.2849279785156251, -0.10298583984375001, 10.472222900390625
1520530309972614469, -0.01384843766841204, 0.06178533728983833, -0.0010652644360316954, -1.253792724609375, -0.113763427734375, 10.511740722656251
1520530309977630469, -0.013582121559404116, 0.06045375674479871, -0.005858954398174325, -1.234632568359375, -0.10538085937500001, 10.49737060546875
1520530309982646469, -0.014913702104443736, 0.05566006678265608, -0.009587379924285258, -1.191522216796875, -0.077838134765625, 10.5380859375
1520530309987662469, -0.016245282649483356, 0.05299690569257685, -0.012250541014364496, -1.2022998046875, -0.089813232421875, 10.50216064453125
1520530309992678469, -0.018109495412538822, 0.04926848016646591, -0.012516857123372421, -1.184337158203125, -0.08861572265625, 10.49737060546875
1520530309997693469, -0.01864212763055467, 0.043942157986307434, -0.012516857123372421, -1.1771520996093752, -0.092208251953125, 10.520123291015626
1520530310002710469, -0.020506340393610135, 0.03755057137011726, -0.014913702104443736, -1.17116455078125, -0.09101074218750001, 10.493778076171875
1520530310007725469, -0.02476739813773692, 0.03062635253591124, -0.01651159875849128, -1.1831396484375, -0.09101074218750001, 10.487790527343751
1520530310012741469, -0.02636529479178446, 0.02716424311880823, -0.012783173232380344, -1.16637451171875, -0.0814306640625, 10.518925781250001
1520530310017757469, -0.02769687533682408, 0.023702133701705222, -0.013049489341388268, -1.184337158203125, -0.128133544921875, 10.522518310546875
1520530310022774469, -0.027963191445832, 0.0234358175926973, -0.014114753777419964, -1.232237548828125, -0.12693603515625002, 10.43031005859375
1520530310027789469, -0.03062635253591124, 0.025832662573768612, -0.015180018213451659, -1.2406201171875, -0.14609619140625002, 10.40396484375
1520530310032806469, -0.031158984753927088, 0.02769687533682408, -0.01597896654047543, -1.2370275878906252, -0.16166381835937502, 10.41114990234375
1520530310037821469, -0.0346210941710301, 0.030892668644919165, -0.018109495412538822, -1.22385498046875, -0.1772314453125, 10.354866943359376
1520530310042838469, -0.03648530693408557, 0.03675162304309349, -0.020506340393610135, -1.210682373046875, -0.195194091796875, 10.342891845703125
1520530310047853469, -0.036218990825077645, 0.04154531300523612, -0.01997370817559429, -1.2286450195312502, -0.18441650390625, 10.304571533203125
1520530310052870469, -0.03834951969714103, 0.044741106313331204, -0.02290318537468145, -1.2118798828125001, -0.18561401367187502, 10.266251220703126
1520530310057886469, -0.03941478413317273, 0.045540054640354974, -0.023968449810713145, -1.1987072753906252, -0.214354248046875, 10.259066162109375
1520530310062901469, -0.04101268078722027, 0.046605319076386674, -0.025300030355752765, -1.20948486328125, -0.195194091796875, 10.29139892578125
1520530310067918469, -0.041278996896228194, 0.04633900296737875, -0.023169501483689375, -1.1831396484375, -0.207169189453125, 10.280621337890626
1520530310072934469, -0.04074636467821235, 0.04447479020432328, -0.02556634646476069, -1.196312255859375, -0.195194091796875, 10.26265869140625
1520530310077950469, -0.039681100242180654, 0.03994741635118858, -0.02556634646476069, -1.1651770019531251, -0.183218994140625, 10.26984375
1520530310082966469, -0.03728425526110934, 0.03675162304309349, -0.023169501483689375, -1.174757080078125, -0.21195922851562501, 10.350076904296875
1520530310087982469, -0.037816887479125184, 0.03408846195301425, -0.019707392066586366, -1.1819421386718751, -0.1389111328125, 10.369237060546876
1520530310092998469, -0.036218990825077645, 0.031158984753927088, -0.018375811521546746, -1.1951147460937501, -0.12094848632812501, 10.383607177734376
1520530310098014469, -0.03408846195301425, 0.02929477199087162, -0.016777914867499202, -1.1831396484375, -0.047900390625000004, 10.391989746093751
1520530310103030469, -0.03328951362599048, 0.0290284558818637, -0.01171790879634865, -1.140029296875, -0.00239501953125, 10.395582275390625
1520530310108046469, -0.02982740420888747, 0.02849582366384785, -0.0055926382891664005, -1.112486572265625, 0.056282958984375006, 10.433902587890625
1520530310113061469, -0.026098978682776535, 0.027430559227816155, 0.0, -1.05141357421875, 0.0718505859375, 10.44228515625
1520530310118078469, -0.023968449810713145, 0.02636529479178446, 0.007723167161229791, -0.9843530273437501, 0.085023193359375, 10.448272705078125
1520530310123094469, -0.018375811521546746, 0.02476739813773692, 0.014913702104443736, -0.97477294921875, 0.13172607421875002, 10.420729980468751
1520530310128109469, -0.012783173232380344, 0.021837920938649755, 0.02716424311880823, -0.9927355957031251, 0.124541015625, 10.431507568359375
1520530310133126469, -0.007456851052221868, 0.01864212763055467, 0.03834951969714103, -0.9735754394531251, 0.1580712890625, 10.419532470703125
1520530310138141469, -0.001597896654047543, 0.013049489341388268, 0.050067428493489684, -0.980760498046875, 0.154478759765625, 10.39677978515625
1520530310143157469, 0.004527373853134706, 0.012783173232380344, 0.06338323394388587, -1.0406359863281252, 0.12693603515625002, 10.375224609375001
1520530310148173469, 0.010918960469324878, 0.013582121559404116, 0.07456851052221868, -1.055006103515625, 0.09819580078125001, 10.412347412109375
1520530310153190469, 0.018109495412538822, 0.018908443739562592, 0.08229167768344847, -1.081351318359375, 0.09819580078125001, 10.432705078125
1520530310158205469, 0.025033714246744842, 0.0234358175926973, 0.08894958040864656, -1.110091552734375, 0.032332763671875, 10.45426025390625
1520530310163221469, 0.03382214584400633, 0.02769687533682408, 0.09108010928070995, -1.150806884765625, -0.025147705078125002, 10.451865234375001
1520530310168238469, 0.04234426133225989, 0.0290284558818637, 0.09187905760773372, -1.155596923828125, -0.039517822265625, 10.47821044921875
1520530310173254469, 0.05060006071150553, 0.030892668644919165, 0.09001484484467825, -1.159189453125, -0.0622705078125, 10.465037841796876
1520530310178269469, 0.05832322787273532, 0.030360036426903318, 0.08575378710055148, -1.2166699218750001, -0.11256591796875001, 10.44947021484375
1520530310183285469, 0.06737797557900473, 0.02769687533682408, 0.08175904546543261, -1.201102294921875, -0.1389111328125, 10.51653076171875
1520530310188302469, 0.07456851052221868, 0.026098978682776535, 0.07616640717626622, -1.217867431640625, -0.142503662109375, 10.503358154296876
1520530310193317469, 0.08229167768344847, 0.02423476591972107, 0.07030745277809189, -1.234632568359375, -0.128133544921875, 10.50695068359375
1520530310198333469, 0.0905474770626941, 0.023169501483689375, 0.06498113059793342, -1.1951147460937501, -0.1293310546875, 10.503358154296876
1520530310203350469, 0.09800432811491597, 0.021305288720633905, 0.06391586616190172, -1.159189453125, -0.106578369140625, 10.46384033203125
1520530310208367469, 0.10519486305812992, 0.021571604829641832, 0.06338323394388587, -1.148411865234375, -0.089813232421875, 10.441087646484375
1520530310213381469, 0.111852765783328, 0.020506340393610135, 0.05992112452678287, -1.1831396484375, -0.050295410156250005, 10.4374951171875
1520530310218398469, 0.11797803629051026, 0.017843179303530896, 0.06391586616190172, -1.12805419921875, -0.0383203125, 10.433902587890625
1520530310223414469, 0.12330435847066874, 0.016245282649483356, 0.06764429168801266, -1.07296875, -0.050295410156250005, 10.450667724609376
1520530310228430469, 0.12863068065082722, 0.014381069886427887, 0.07137271721412358, -1.1064990234375, -0.013172607421875001, 10.436297607421876
1520530310233447469, 0.13662016392106494, 0.014913702104443736, 0.07430219441321075, -1.1352392578125001, 0.022752685546875002, 10.409952392578125
1520530310238462469, 0.1408812216651917, 0.012516857123372421, 0.07749798772130584, -1.131646728515625, 0.020357666015625, 10.431507568359375
1520530310243478469, 0.14700649217237396, 0.013049489341388268, 0.07856325215733753, -1.1256591796875, 0.03592529296875, 10.44947021484375
1520530310248495469, 0.1510012338074928, 0.011984224905356573, 0.08468852266451977, -1.140029296875, 0.037122802734375, 10.460247802734376
1520530310253510469, 0.1531317626795562, 0.009054747706269411, 0.08921589651765449, -1.1436218261718751, 0.022752685546875002, 10.427915039062501
1520530310258526469, 0.15712650431467506, 0.008788431597261486, 0.09400958647979711, -1.112486572265625, 0.009580078125, 10.438692626953125
1520530310263541469, 0.15792545264169883, 0.008788431597261486, 0.09693906367888427, -1.12326416015625, 0.0047900390625, 10.431507568359375
1520530310268558469, 0.16032229762277014, 0.007723167161229791, 0.09960222476896352, -1.18553466796875, 0.003592529296875, 10.3895947265625
1520530310273575469, 0.1629854587128494, 0.007456851052221868, 0.09906959255094767, -1.20469482421875, -0.0047900390625, 10.423125
1520530310278590469, 0.16591493591193654, 0.007723167161229791, 0.09454221869781296, -1.210682373046875, -0.025147705078125002, 10.391989746093751
1520530310283606469, 0.16937704532903955, 0.009054747706269411, 0.09108010928070995, -1.21906494140625, -0.061072998046875, 10.395582275390625
1520530310288622469, 0.16911072922003165, 0.01171790879634865, 0.08974852873567034, -1.155596923828125, -0.0335302734375, 10.362052001953126
1520530310293637469, 0.16911072922003165, 0.014913702104443736, 0.08948221262666241, -1.136436767578125, -0.0718505859375, 10.333311767578126
1520530310298654469, 0.16884441311102372, 0.020240024284602212, 0.0905474770626941, -1.178349609375, -0.076640625, 10.342891845703125
1520530310303670469, 0.16964336143804748, 0.021038972611625982, 0.08815063208162278, -1.1879296875, -0.087418212890625, 10.386002197265626
1520530310308685469, 0.17017599365606334, 0.01944107595757844, 0.08575378710055148, -1.16158447265625, -0.12334350585937501, 10.41593994140625
1520530310313701469, 0.1685780970020158, 0.015446334322459582, 0.08522115488253562, -1.16637451171875, -0.11256591796875001, 10.374027099609375
1520530310318718469, 0.16484967147590485, 0.012783173232380344, 0.08442220655551186, -1.1651770019531251, -0.086220703125, 10.427915039062501
1520530310323734469, 0.1597896654047543, 0.008788431597261486, 0.08548747099154355, -1.1472143554687502, -0.06825805664062501, 10.44947021484375
1520530310328750469, 0.15765913653269092, 0.006125270507182248, 0.08468852266451977, -1.146016845703125, -0.06466552734375, 10.490185546875
1520530310333766469, 0.1555286076606275, 0.003994741635118857, 0.08202536157444054, -1.167572021484375, -0.0718505859375, 10.49737060546875
1520530310338782469, 0.1475391243903898, 0.0023968449810713144, 0.07776430383031376, -1.1903247070312502, -0.045505371093750004, 10.528505859375
1520530310343797469, 0.14061490555618378, 0.0, 0.07430219441321075, -1.1867321777343751, -0.06825805664062501, 10.49258056640625
1520530310348813469, 0.13502226726701738, 0.0007989483270237715, 0.06737797557900473, -1.2070898437500002, -0.06346801757812501, 10.518925781250001
1520530310353830469, 0.12863068065082722, 0.003195793308095086, 0.05912217619975909, -1.1819421386718751, -0.056282958984375006, 10.533295898437501
1520530310358846469, 0.1206411973805895, 0.005326322180158476, 0.05273058958356892, -1.249002685546875, -0.047900390625000004, 10.5141357421875
1520530310363861469, 0.11451592687340725, 0.007989483270237714, 0.04633900296737875, -1.2334350585937501, -0.022752685546875002, 10.505753173828126
1520530310368879469, 0.10412959862209822, 0.009853696033293183, 0.04154531300523612, -1.213077392578125, -0.045505371093750004, 10.486593017578125
1520530310373894469, 0.09347695426178126, 0.01731054708551505, 0.03834951969714103, -1.229842529296875, -0.023950195312500002, 10.45426025390625
1520530310378910469, 0.08628641931856733, 0.020240024284602212, 0.035153726389045944, -1.2286450195312502, -0.013172607421875001, 10.462642822265625
1520530310383926469, 0.07909588437535338, 0.02476739813773692, 0.03142530086293501, -1.2286450195312502, 0.023950195312500002, 10.44468017578125
1520530310388942469, 0.06977482056007604, 0.030093720317895395, 0.0290284558818637, -1.196312255859375, 0.05748046875, 10.4183349609375
1520530310393957469, 0.06018744063579079, 0.033555829734998405, 0.02556634646476069, -1.22625, 0.055085449218750006, 10.435100097656251
1520530310398974469, 0.05406217012860854, 0.03808320358813311, 0.023702133701705222, -1.196312255859375, 0.06346801757812501, 10.441087646484375
1520530310403991469, 0.046605319076386674, 0.039681100242180654, 0.021571604829641832, -1.201102294921875, 0.039517822265625, 10.469827880859375
1520530310409005469, 0.03542004249805387, 0.03941478413317273, 0.01651159875849128, -1.1639794921875, 0.026345214843750003, 10.49258056640625
1520530310414021469, 0.0290284558818637, 0.042077945223251964, 0.012516857123372421, -1.21427490234375, 0.025147705078125002, 10.5380859375
1520530310419038469, 0.019174759848570515, 0.04287689355027574, 0.010652644360316953, -1.2022998046875, 0.001197509765625, 10.55964111328125
1520530310424054469, 0.011185276578332801, 0.04074636467821235, 0.008522115488253563, -1.2022998046875, -0.008382568359375, 10.577603759765626
1520530310429070469, 0.005858954398174325, 0.040480048569204424, 0.004793689962142629, -1.2022998046875, -0.010777587890625, 10.551258544921875
1520530310434086469, -0.0005326322180158477, 0.039681100242180654, 0.003994741635118857, -1.162781982421875, 0.00239501953125, 10.56443115234375
1520530310439102469, -0.006391586616190172, 0.03808320358813311, 0.003994741635118857, -1.17116455078125, 0.01676513671875, 10.53090087890625
1520530310444117469, -0.012250541014364496, 0.03728425526110934, 0.004793689962142629, -1.189127197265625, 0.03113525390625, 10.498568115234375
1520530310449133469, -0.017044230976507126, 0.03568635860706179, 0.006125270507182248, -1.1651770019531251, 0.039517822265625, 10.515333251953125
1520530310454150469, -0.01997370817559429, 0.03542004249805387, 0.006657902725198096, -1.13284423828125, 0.06346801757812501, 10.486593017578125
1520530310459166469, -0.022370553156665602, 0.0346210941710301, 0.005326322180158476, -1.153201904296875, 0.037122802734375, 10.46863037109375
1520530310464181469, -0.026631610900792385, 0.030892668644919165, 0.007989483270237714, -1.1735595703125001, 0.111368408203125, 10.49258056640625
1520530310469198469, -0.031158984753927088, 0.030093720317895395, 0.012516857123372421, -1.184337158203125, 0.0814306640625, 10.505753173828126
1520530310474214469, -0.03062635253591124, 0.027963191445832, 0.01038632825130903, -1.2022998046875, 0.08861572265625, 10.50216064453125
1520530310479230469, -0.031158984753927088, 0.02636529479178446, 0.011451592687340724, -1.19990478515625, 0.124541015625, 10.486593017578125
1520530310484246469, -0.03142530086293501, 0.025033714246744842, 0.011185276578332801, -1.268162841796875, 0.12214599609375, 10.457852783203126
1520530310489262469, -0.032756881407974635, 0.024501082028728992, 0.009587379924285258, -1.270557861328125, 0.113763427734375, 10.453062744140626
1520530310494277469, -0.03195793308095086, 0.02556634646476069, 0.005858954398174325, -1.275347900390625, 0.08382568359375, 10.414742431640626
1520530310499294469, -0.032756881407974635, 0.02929477199087162, 0.0010652644360316954, -1.232237548828125, 0.076640625, 10.417137451171875
1520530310504310469, -0.030360036426903318, 0.031691616971942935, -0.001597896654047543, -1.232237548828125, 0.076640625, 10.420729980468751
1520530310509325469, -0.02716424311880823, 0.03382214584400633, -0.00346210941710301, -1.229842529296875, 0.082628173828125, 10.41114990234375
1520530310514341469, -0.026098978682776535, 0.03542004249805387, -0.0010652644360316954, -1.2202624511718752, 0.08861572265625, 10.397977294921876
1520530310519358469, -0.0234358175926973, 0.03675162304309349, 0.0007989483270237715, -1.234632568359375, 0.041912841796875, 10.400372314453126
1520530310524373469, -0.021837920938649755, 0.038615835806148954, 0.003994741635118857, -1.1927197265625, 0.050295410156250005, 10.3800146484375
1520530310529389469, -0.021305288720633905, 0.0391484680241648, 0.0021305288720633907, -1.191522216796875, 0.046702880859375004, 10.38240966796875
1520530310534406469, -0.015446334322459582, 0.036218990825077645, 0.0055926382891664005, -1.1867321777343751, 0.0383203125, 10.406359863281251
1520530310539422469, -0.013582121559404116, 0.03382214584400633, 0.005858954398174325, -1.162781982421875, 0.051492919921875005, 10.375224609375001
1520530310544437469, -0.010918960469324878, 0.030892668644919165, 0.00692421883420602, -1.1879296875, 0.017962646484375, 10.395582275390625
1520530310549454469, -0.008522115488253563, 0.026098978682776535, 0.002663161090079238, -1.217867431640625, 0.011975097656250001, 10.405162353515626
1520530310554470469, -0.0055926382891664005, 0.024501082028728992, 0.004261057744126781, -1.234632568359375, 0.02155517578125, 10.393187255859376
1520530310559486469, -0.0023968449810713144, 0.018908443739562592, 0.004261057744126781, -1.205892333984375, 0.0335302734375, 10.378817138671875
1520530310564501469, 0.0005326322180158477, 0.016777914867499202, 0.004527373853134706, -1.244212646484375, 0.00239501953125, 10.366842041015625
1520530310569518469, 0.002663161090079238, 0.012516857123372421, 0.004527373853134706, -1.275347900390625, -0.025147705078125002, 10.417137451171875
1520530310574534469, 0.008522115488253563, 0.014114753777419964, 0.003994741635118857, -1.22385498046875, 0.00239501953125, 10.375224609375001
1520530310579550469, 0.012516857123372421, 0.01597896654047543, 0.005060006071150553, -1.157991943359375, 0.02155517578125, 10.318941650390625
1520530310584567469, 0.015180018213451659, 0.012250541014364496, 0.009587379924285258, -1.23822509765625, 0.058677978515625, 10.342891845703125
1520530310589582469, 0.019174759848570515, 0.010120012142301106, 0.01464738599543581, -1.229842529296875, 0.03592529296875, 10.386002197265626
1520530310594597469, 0.02423476591972107, 0.006125270507182248, 0.017843179303530896, -1.1903247070312502, 0.03113525390625, 10.397977294921876
1520530310599614469, 0.02929477199087162, 0.005858954398174325, 0.0234358175926973, -1.20469482421875, 0.051492919921875005, 10.326126708984376
1520530310604630469, 0.032756881407974635, 0.008522115488253563, 0.029561088099879545, -1.22385498046875, 0.053887939453125006, 10.3416943359375
1520530310609646469, 0.037816887479125184, 0.010652644360316953, 0.034354778062022175, -1.23822509765625, 0.07544311523437501, 10.314151611328125
1520530310614661469, 0.043942157986307434, 0.011451592687340724, 0.038615835806148954, -1.2310400390625, 0.111368408203125, 10.297386474609375
1520530310619678469, 0.04980111238448176, 0.013315805450396193, 0.040480048569204424, -1.2669653320312502, 0.055085449218750006, 10.293793945312501
1520530310624694469, 0.056192699000671927, 0.015180018213451659, 0.042077945223251964, -1.265767822265625, 0.06346801757812501, 10.29139892578125
1520530310629710469, 0.06045375674479871, 0.017843179303530896, 0.04234426133225989, -1.289718017578125, 0.086220703125, 10.29139892578125
1520530310634726469, 0.06551376281594927, 0.01997370817559429, 0.04074636467821235, -1.25738525390625, 0.080233154296875, 10.28181884765625
1520530310639742469, 0.07110640110511567, 0.022370553156665602, 0.03941478413317273, -1.265767822265625, 0.06346801757812501, 10.28900390625
1520530310644757469, 0.07510114274023452, 0.02423476591972107, 0.03808320358813311, -1.268162841796875, 0.037122802734375, 10.304571533203125
1520530310649775469, 0.080427464920393, 0.02636529479178446, 0.0391484680241648, -1.2789404296875, 0.0335302734375, 10.273436279296876
1520530310654790469, 0.0814927293564247, 0.02769687533682408, 0.0391484680241648, -1.270557861328125, 0.032332763671875, 10.292596435546875
1520530310659805469, 0.08388957433749601, 0.03222424918995878, 0.03888215191515688, -1.312470703125, 0.025147705078125002, 10.323731689453126
1520530310664821469, 0.08655273542757524, 0.031691616971942935, 0.036218990825077645, -1.28373046875, -0.03592529296875, 10.347681884765626
1520530310669839469, 0.08921589651765449, 0.030093720317895395, 0.03728425526110934, -1.28612548828125, -0.01676513671875, 10.366842041015625
1520530310674854469, 0.0916127414987258, 0.02769687533682408, 0.037816887479125184, -1.2549902343750001, -0.03113525390625, 10.376422119140626
1520530310679870469, 0.09427590258880504, 0.026631610900792385, 0.03941478413317273, -1.26217529296875, -0.0059875488281250005, 10.40396484375
1520530310684887469, 0.09427590258880504, 0.026098978682776535, 0.042077945223251964, -1.302890625, 0.025147705078125002, 10.393187255859376
1520530310689903469, 0.09427590258880504, 0.023702133701705222, 0.042077945223251964, -1.26217529296875, 0.052690429687500005, 10.378817138671875
1520530310694917469, 0.09560748313384466, 0.02476739813773692, 0.04447479020432328, -1.2969030761718752, 0.055085449218750006, 10.37761962890625
1520530310699935469, 0.09587379924285258, 0.02556634646476069, 0.04767058351241837, -1.275347900390625, 0.099393310546875, 10.431507568359375
1520530310704950469, 0.09880327644193974, 0.025832662573768612, 0.04607268685837083, -1.328038330078125, 0.09340576171875001, 10.4087548828125
1520530310709966469, 0.09933590865995559, 0.026098978682776535, 0.04527373853134705, -1.342408447265625, 0.1197509765625, 10.43031005859375
1520530310714981469, 0.10013485698697937, 0.028762139772855775, 0.04447479020432328, -1.32444580078125, 0.0814306640625, 10.43031005859375
1520530310719998469, 0.10120012142301106, 0.03328951362599048, 0.03755057137011726, -1.3316308593750001, 0.0718505859375, 10.421927490234376
1520530310725014469, 0.10199906975003482, 0.03249056529896671, 0.035153726389045944, -1.3232482910156251, 0.082628173828125, 10.503358154296876
1520530310730030469, 0.10333065029507445, 0.03302319751698256, 0.03195793308095086, -1.33881591796875, 0.1149609375, 10.532098388671876
1520530310735047469, 0.10333065029507445, 0.03222424918995878, 0.02716424311880823, -1.350791015625, 0.082628173828125, 10.494975585937501
1520530310740063469, 0.10546117916713783, 0.030093720317895395, 0.02689792700980031, -1.34360595703125, 0.09340576171875001, 10.457852783203126
1520530310745077469, 0.10173275364102691, 0.027963191445832, 0.025300030355752765, -1.320853271484375, 0.087418212890625, 10.515333251953125
1520530310750095469, 0.10093380531400313, 0.022636869265673525, 0.023968449810713145, -1.294508056640625, 0.11017089843750001, 10.477012939453125
1520530310755109469, 0.10120012142301106, 0.017843179303530896, 0.025300030355752765, -1.2885205078125002, 0.128133544921875, 10.491383056640625
1520530310760126469, 0.09933590865995559, 0.013315805450396193, 0.02423476591972107, -1.292113037109375, 0.137713623046875, 10.448272705078125
1520530310765141469, 0.0972053797878922, 0.007456851052221868, 0.026098978682776535, -1.272952880859375, 0.173638916015625, 10.477012939453125
1520530310770158469, 0.09640643146086843, 0.00346210941710301, 0.024501082028728992, -1.302890625, 0.1772314453125, 10.487790527343751
1520530310775174469, 0.09614011535186051, -0.0010652644360316954, 0.02689792700980031, -1.29570556640625, 0.16525634765625, 10.50695068359375
1520530310780191469, 0.09294432204376542, -0.003994741635118857, 0.025832662573768612, -1.31965576171875, 0.17603393554687502, 10.480605468750001
1520530310785207469, 0.0905474770626941, -0.007190534943213944, 0.02689792700980031, -1.313668212890625, 0.18082397460937502, 10.48300048828125
1520530310790223469, 0.08628641931856733, -0.008522115488253563, 0.02476739813773692, -1.31965576171875, 0.16525634765625, 10.493778076171875
1520530310795237469, 0.08415589044650393, -0.008788431597261486, 0.020240024284602212, -1.320853271484375, 0.14130615234375002, 10.520123291015626
1520530310800253469, 0.08229167768344847, -0.013315805450396193, 0.020240024284602212, -1.347198486328125, 0.142503662109375, 10.5380859375
1520530310805271469, 0.07616640717626622, -0.015446334322459582, 0.016777914867499202, -1.308878173828125, 0.16046630859375, 10.534493408203126
1520530310810287469, 0.07297061386817114, -0.018375811521546746, 0.014114753777419964, -1.249002685546875, 0.17004638671875, 10.570418701171876
1520530310815301469, 0.0692421883420602, -0.02556634646476069, 0.01597896654047543, -1.1867321777343751, 0.17124389648437502, 10.614726562500001
1520530310820318469, 0.06444849837991756, -0.03195793308095086, 0.017843179303530896, -1.179547119140625, 0.207169189453125, 10.611134033203125
1520530310825335469, 0.05752427954571155, -0.03728425526110934, 0.018375811521546746, -1.191522216796875, 0.20118164062500002, 10.57401123046875
1520530310830349469, 0.051665325147537224, -0.04261057744126781, 0.020240024284602212, -1.232237548828125, 0.23710693359375, 10.560838623046875
1520530310835366469, 0.0458063707493629, -0.04607268685837083, 0.023169501483689375, -1.25259521484375, 0.21555175781250002, 10.544073486328125
1520530310840382469, 0.03808320358813311, -0.04713795129440252, 0.023169501483689375, -1.268162841796875, 0.21555175781250002, 10.546468505859375
1520530310845397469, 0.03382214584400633, -0.047404267403410444, 0.021837920938649755, -1.26217529296875, 0.21076171875000002, 10.534493408203126
1520530310850414469, 0.02636529479178446, -0.04873584794845006, 0.01864212763055467, -1.275347900390625, 0.18561401367187502, 10.55964111328125
1520530310855430469, 0.023169501483689375, -0.04926848016646591, 0.01464738599543581, -1.316063232421875, 0.15208374023437501, 10.5045556640625
1520530310860446469, 0.017843179303530896, -0.04953479627547384, 0.010652644360316953, -1.2585827636718752, 0.12334350585937501, 10.50216064453125
1520530310865461469, 0.012250541014364496, -0.049002164057457984, 0.007456851052221868, -1.3184582519531252, 0.12334350585937501, 10.466235351562501
1520530310870478469, 0.010120012142301106, -0.047404267403410444, 0.005060006071150553, -1.2633728027343751, 0.128133544921875, 10.3704345703125
1520530310875494469, 0.012516857123372421, -0.04500742242233913, 0.004527373853134706, -1.253792724609375, 0.08861572265625, 10.378817138671875
1520530310880511469, 0.008788431597261486, -0.04367584187729951, 0.001597896654047543, -1.294508056640625, 0.047900390625000004, 10.360854492187501
1520530310885526469, 0.0055926382891664005, -0.039681100242180654, -0.001597896654047543, -1.26217529296875, 0.023950195312500002, 10.30576904296875
1520530310890543469, 0.005326322180158476, -0.03542004249805387, -0.003195793308095086, -1.2849279785156251, 0.001197509765625, 10.300979003906251
1520530310895557469, 0.006125270507182248, -0.028762139772855775, -0.008522115488253563, -1.31965576171875, -0.03592529296875, 10.27702880859375
1520530310900574469, 0.008522115488253563, -0.021038972611625982, -0.014381069886427887, -1.3483959960937502, -0.03592529296875, 10.273436279296876
1520530310905590469, 0.007989483270237714, -0.01651159875849128, -0.021038972611625982, -1.350791015625, -0.051492919921875005, 10.271041259765626
1520530310910606469, 0.009054747706269411, -0.009321063815277334, -0.02689792700980031, -1.32923583984375, -0.052690429687500005, 10.279423828125001
1520530310915621469, 0.008788431597261486, -0.00346210941710301, -0.03249056529896671, -1.312470703125, -0.0383203125, 10.271041259765626
1520530310920637469, 0.007190534943213944, 0.003994741635118857, -0.040480048569204424, -1.304088134765625, -0.032332763671875, 10.308164062500001
1520530310925654469, 0.007456851052221868, 0.01171790879634865, -0.0468716351853946, -1.282532958984375, -0.039517822265625, 10.309361572265626
1520530310930670469, 0.005060006071150553, 0.018109495412538822, -0.05060006071150553, -1.227447509765625, -0.027542724609375003, 10.321336669921875
1520530310935686469, 0.00026631610900792384, 0.023169501483689375, -0.05299690569257685, -1.235830078125, 0.020357666015625, 10.300979003906251
1520530310940702469, -0.001864212763055467, 0.02716424311880823, -0.053529537910592694, -1.1735595703125001, 0.0431103515625, 10.33450927734375
1520530310945718469, -0.004527373853134706, 0.03062635253591124, -0.05113269292952138, -1.2070898437500002, 0.067060546875, 10.37282958984375
1520530310950734469, -0.00825579937924564, 0.036218990825077645, -0.04767058351241837, -1.2214599609375, 0.052690429687500005, 10.397977294921876
1520530310955750469, -0.01171790879634865, 0.04181162911424404, -0.043942157986307434, -1.193917236328125, 0.10298583984375001, 10.3895947265625
1520530310960766469, -0.017044230976507126, 0.04926848016646591, -0.03808320358813311, -1.17595458984375, 0.154478759765625, 10.41114990234375
1520530310965781469, -0.01997370817559429, 0.05645901510967986, -0.029561088099879545, -1.107696533203125, 0.18681152343750002, 10.3416943359375
1520530310970797469, -0.021837920938649755, 0.06737797557900473, -0.022370553156665602, -1.131646728515625, 0.21794677734375, 10.306966552734375
1520530310975814469, -0.023169501483689375, 0.07297061386817114, -0.015446334322459582, -1.232237548828125, 0.16645385742187502, 10.263856201171876
1520530310980830469, -0.02476739813773692, 0.0814927293564247, -0.014114753777419964, -1.275347900390625, 0.12334350585937501, 10.323731689453126
1520530310985846469, -0.0290284558818637, 0.08761799986360694, -0.015180018213451659, -1.277742919921875, 0.07903564453125, 10.402767333984375
1520530310990861469, -0.031691616971942935, 0.0860201032095594, -0.016777914867499202, -1.1819421386718751, 0.04071533203125, 10.435100097656251
1520530310995877469, -0.028762139772855775, 0.08442220655551186, -0.017843179303530896, -1.229842529296875, 0.06346801757812501, 10.457852783203126
1520530311000895469, -0.02929477199087162, 0.07723167161229791, -0.02077265650261806, -1.2597802734375, 0.06825805664062501, 10.4853955078125
1520530311005911469, -0.030360036426903318, 0.07297061386817114, -0.021837920938649755, -1.1831396484375, 0.061072998046875, 10.47821044921875
1520530311010926469, -0.029561088099879545, 0.07297061386817114, -0.02210423704765768, -1.201102294921875, 0.044307861328125, 10.465037841796876
1520530311015942469, -0.027963191445832, 0.07510114274023452, -0.017843179303530896, -1.2406201171875, 0.052690429687500005, 10.459050292968751
1520530311020958469, -0.025033714246744842, 0.07456851052221868, -0.018375811521546746, -1.2669653320312502, 0.045505371093750004, 10.423125
1520530311025974469, -0.02210423704765768, 0.07110640110511567, -0.021571604829641832, -1.2310400390625, 0.0047900390625, 10.412347412109375
1520530311030990469, -0.017044230976507126, 0.07190534943213944, -0.018109495412538822, -1.229842529296875, 0.025147705078125002, 10.395582275390625
1520530311036006469, -0.012516857123372421, 0.07297061386817114, -0.015180018213451659, -1.249002685546875, 0.0718505859375, 10.375224609375001
1520530311041022469, -0.007456851052221868, 0.07110640110511567, -0.014114753777419964, -1.215472412109375, 0.087418212890625, 10.39677978515625
1520530311046038469, -0.0010652644360316954, 0.0692421883420602, -0.011451592687340724, -1.222657470703125, 0.128133544921875, 10.409952392578125
1520530311051055469, 0.005858954398174325, 0.06444849837991756, -0.006657902725198096, -1.149609375, 0.1772314453125, 10.338101806640626
1520530311056071469, 0.014913702104443736, 0.06125270507182248, -0.0007989483270237715, -1.1436218261718751, 0.255069580078125, 10.371632080078125
1520530311061086469, 0.02423476591972107, 0.0569916473276957, 0.004261057744126781, -1.131646728515625, 0.27063720703125, 10.419532470703125
1520530311066102469, 0.03195793308095086, 0.049002164057457984, 0.01038632825130903, -1.1160791015625, 0.30177246093750004, 10.406359863281251
1520530311071119469, 0.041278996896228194, 0.040480048569204424, 0.015180018213451659, -1.1112890625, 0.290994873046875, 10.441087646484375
1520530311076135469, 0.05193164125654515, 0.028762139772855775, 0.0234358175926973, -1.0873388671875, 0.32811767578125, 10.466235351562501
1520530311081151469, 0.0636495500528938, 0.018109495412538822, 0.030892668644919165, -1.05620361328125, 0.365240478515625, 10.466235351562501
1520530311086165469, 0.07456851052221868, 0.007456851052221868, 0.03941478413317273, -1.0585986328125, 0.39398071289062503, 10.443482666015626
1520530311091183469, 0.08548747099154355, -0.004793689962142629, 0.045540054640354974, -1.050216064453125, 0.38559814453125, 10.481802978515626
1520530311096198469, 0.09454221869781296, -0.012516857123372421, 0.051665325147537224, -1.076561279296875, 0.38200561523437504, 10.472222900390625
1520530311101214469, 0.10546117916713783, -0.019174759848570515, 0.055926382891664, -1.1053015136718751, 0.367635498046875, 10.40396484375
1520530311106230469, 0.12010856516257365, -0.02476739813773692, 0.0580569117637274, -1.1112890625, 0.32811767578125, 10.420729980468751
1520530311111247469, 0.1307612095228906, -0.02689792700980031, 0.06045375674479871, -1.093326416015625, 0.28380981445312503, 10.45426025390625
1520530311116262469, 0.1419464861012234, -0.03062635253591124, 0.06444849837991756, -1.086141357421875, 0.233514404296875, 10.3895947265625
1520530311121279469, 0.15419702711558791, -0.03675162304309349, 0.06977482056007604, -1.071771240234375, 0.233514404296875, 10.3704345703125
1520530311126295469, 0.1675128325659841, -0.041278996896228194, 0.07510114274023452, -1.0370434570312501, 0.25147705078125, 10.38240966796875
1520530311131311469, 0.18162758634340406, -0.04527373853134705, 0.08069378102940092, -1.0071057128906251, 0.25626708984375, 10.345286865234376
1520530311136327469, 0.19494339179380024, -0.0513990090385293, 0.08708536764559109, -1.044228515625, 0.259859619140625, 10.32013916015625
1520530311141343469, 0.20852551335320438, -0.05539375067364816, 0.09400958647979711, -1.102906494140625, 0.239501953125, 10.308164062500001
1520530311146357469, 0.22237395102161642, -0.05992112452678287, 0.09800432811491597, -1.1735595703125001, 0.26105712890625, 10.338101806640626
1520530311151374469, 0.23409185981796504, -0.062317969507854176, 0.10120012142301106, -1.232237548828125, 0.18920654296875, 10.328521728515625
1520530311156390469, 0.24794029748637708, -0.06524744670694134, 0.10173275364102691, -1.23822509765625, 0.18202148437500001, 10.353669433593751
1520530311161406469, 0.2599245223917337, -0.06444849837991756, 0.10199906975003482, -1.2334350585937501, 0.192799072265625, 10.330916748046876
1520530311166422469, 0.2729740117331219, -0.06631271114297303, 0.10359696640408238, -1.2214599609375, 0.18681152343750002, 10.317744140625
1520530311171438469, 0.28415928831145476, -0.06711165946999681, 0.10199906975003482, -1.227447509765625, 0.143701171875, 10.332114257812501
1520530311176454469, 0.2945456165627638, -0.06791060779702057, 0.10439591473110614, -1.196312255859375, 0.168848876953125, 10.30576904296875
1520530311181470469, 0.30093720317895395, -0.07004113666908397, 0.10892328858424084, -1.169967041015625, 0.188009033203125, 10.315349121093751
1520530311186486469, 0.31025826699423126, -0.07456851052221868, 0.11105381745630424, -1.17595458984375, 0.19040405273437502, 10.339299316406251
1520530311191503469, 0.314785640847366, -0.07297061386817114, 0.11211908189233594, -1.1903247070312502, 0.188009033203125, 10.339299316406251
1520530311196518469, 0.3198456469185165, -0.07217166554114736, 0.11797803629051026, -1.2070898437500002, 0.19160156250000002, 10.376422119140626
1520530311201534469, 0.32330775633561953, -0.07297061386817114, 0.1161138235274548, -1.2202624511718752, 0.20836669921875, 10.38240966796875
1520530311206550469, 0.32463933688065916, -0.07084008499610774, 0.1139832946553914, -1.2202624511718752, 0.19639160156250002, 10.4087548828125
1520530311211566469, 0.32224249189958787, -0.06950850445106813, 0.11132013356531216, -1.270557861328125, 0.15567626953125, 10.436297607421876
1520530311216581469, 0.3161172213924056, -0.06711165946999681, 0.108390656366225, -1.30528564453125, 0.135318603515625, 10.479407958984375
1520530311221598469, 0.31185616364827884, -0.06524744670694134, 0.10359696640408238, -1.325643310546875, 0.142503662109375, 10.496173095703126
1520530311226614469, 0.30306773205101734, -0.06125270507182248, 0.09853696033293181, -1.330433349609375, 0.130528564453125, 10.509345703125
1520530311231631469, 0.2950782487807796, -0.0580569117637274, 0.09241168982574957, -1.3460009765625, 0.1293310546875, 10.494975585937501
1520530311236647469, 0.2857571849655023, -0.05432848623761646, 0.08415589044650393, -1.3148657226562501, 0.1389111328125, 10.474617919921876
1520530311241663469, 0.27563717282320116, -0.0458063707493629, 0.080427464920393, -1.36276611328125, 0.125738525390625, 10.490185546875
1520530311246677469, 0.26445189624486837, -0.03328951362599048, 0.07084008499610774, -1.402283935546875, 0.1484912109375, 10.438692626953125
1520530311251694469, 0.2524676713395118, -0.02290318537468145, 0.06311691783487795, -1.3962963867187501, 0.147293701171875, 10.4566552734375
1520530311256708469, 0.23728765312606015, -0.016777914867499202, 0.053529537910592694, -1.3316308593750001, 0.118553466796875, 10.453062744140626
1520530311261726469, 0.22290658323963225, -0.00825579937924564, 0.045540054640354974, -1.31965576171875, 0.11017089843750001, 10.46384033203125
1520530311266742469, 0.21278657109733115, -0.0029294771990871623, 0.03755057137011726, -1.3268408203125002, 0.154478759765625, 10.5380859375
1520530311271758469, 0.19734023677487156, 0.004527373853134706, 0.030892668644919165, -1.316063232421875, 0.154478759765625, 10.600356445312501
1520530311276774469, 0.18056232190737237, 0.011185276578332801, 0.02716424311880823, -1.2981005859375, 0.21195922851562501, 10.61712158203125
1520530311281789469, 0.16458335536689694, 0.01731054708551505, 0.018908443739562592, -1.3483959960937502, 0.286204833984375, 10.596763916015625
1520530311286807469, 0.1472728082813819, 0.02556634646476069, 0.012783173232380344, -1.270557861328125, 0.3448828125, 10.653046875000001
1520530311291823469, 0.1318264739589223, 0.03302319751698256, 0.007723167161229791, -1.249002685546875, 0.379610595703125, 10.663824462890625
1520530311296837469, 0.11638013963646272, 0.0391484680241648, 0.0010652644360316954, -1.2633728027343751, 0.427510986328125, 10.727292480468751
1520530311301854469, 0.10013485698697937, 0.041278996896228194, -0.001331580545039619, -1.25738525390625, 0.43230102539062504, 10.750045166015626
1520530311306870469, 0.08202536157444054, 0.04101268078722027, -0.008788431597261486, -1.227447509765625, 0.4454736328125, 10.741662597656251
1520530311311886469, 0.06524744670694134, 0.0402137324601965, -0.01864212763055467, -1.24301513671875, 0.458646240234375, 10.735675048828126
1520530311316902469, 0.05193164125654515, 0.037816887479125184, -0.025300030355752765, -1.178349609375, 0.49097900390625004, 10.741662597656251
1520530311321919469, 0.0346210941710301, 0.030093720317895395, -0.031691616971942935, -1.172362060546875, 0.513731689453125, 10.72250244140625
1520530311326934469, 0.01864212763055467, 0.02556634646476069, -0.03728425526110934, -1.196312255859375, 0.5376818847656251, 10.682984619140626
1520530311331949469, 0.007190534943213944, 0.021305288720633905, -0.04101268078722027, -1.1927197265625, 0.5352868652343751, 10.712922363281251
1520530311336967469, -0.007989483270237714, 0.018375811521546746, -0.04154531300523612, -1.1879296875, 0.564027099609375, 10.740465087890625
1520530311341983469, -0.021038972611625982, 0.01464738599543581, -0.044741106313331204, -1.1987072753906252, 0.552052001953125, 10.709329833984375
1520530311346998469, -0.03595267471606972, 0.009587379924285258, -0.045540054640354974, -1.172362060546875, 0.5568420410156251, 10.690169677734376
1520530311352014469, -0.04926848016646591, 0.003994741635118857, -0.045540054640354974, -1.19990478515625, 0.5700146484375, 10.656639404296875
1520530311357031469, -0.060720072853806636, 0.003195793308095086, -0.044741106313331204, -1.2406201171875, 0.58198974609375, 10.621911621093751
1520530311362046469, -0.07323692997717905, 0.004261057744126781, -0.045540054640354974, -1.3148657226562501, 0.5484594726562501, 10.6961572265625
1520530311367061469, -0.08255799379245639, 0.003728425526110934, -0.04767058351241837, -1.265767822265625, 0.5269042968750001, 10.692564697265626
1520530311372078469, -0.09640643146086843, 0.0010652644360316954, -0.05273058958356892, -1.2717553710937501, 0.5125341796875, 10.671009521484375
1520530311377095469, -0.1105211852382884, -0.0021305288720633907, -0.05486111845563231, -1.21427490234375, 0.5245092773437501, 10.714119873046876
1520530311382111469, -0.11930961683554989, -0.00825579937924564, -0.05539375067364816, -1.1819421386718751, 0.542471923828125, 10.742860107421876
1520530311387127469, -0.13156015784991437, -0.010918960469324878, -0.05486111845563231, -1.157991943359375, 0.540076904296875, 10.727292480468751
1520530311392143469, -0.14168016999221547, -0.014913702104443736, -0.05113269292952138, -1.13284423828125, 0.523311767578125, 10.680589599609375
1520530311397158469, -0.1531317626795562, -0.02210423704765768, -0.04447479020432328, -1.169967041015625, 0.5316943359375, 10.660231933593751
1520530311402175469, -0.1629854587128494, -0.030360036426903318, -0.040480048569204424, -1.172362060546875, 0.508941650390625, 10.6482568359375
1520530311407191469, -0.17630126416324557, -0.03568635860706179, -0.037816887479125184, -1.1831396484375, 0.5161267089843751, 10.65065185546875
1520530311412205469, -0.18508969576050707, -0.03834951969714103, -0.03249056529896671, -1.1819421386718751, 0.45385620117187503, 10.618319091796875
1520530311417223469, -0.19281286292173686, -0.04261057744126781, -0.030892668644919165, -1.20469482421875, 0.437091064453125, 10.510543212890626
1520530311422239469, -0.19840550121090325, -0.043143209659283664, -0.03062635253591124, -1.2310400390625, 0.39996826171875, 10.493778076171875
1520530311427255469, -0.2045307717180855, -0.04340952576829159, -0.030360036426903318, -1.2286450195312502, 0.358055419921875, 10.498568115234375
1520530311432271469, -0.20426445560907758, -0.04261057744126781, -0.02929477199087162, -1.24541015625, 0.358055419921875, 10.469827880859375
1520530311437287469, -0.20506340393610137, -0.04234426133225989, -0.030360036426903318, -1.2214599609375, 0.324525146484375, 10.42552001953125
1520530311442302469, -0.2045307717180855, -0.04181162911424404, -0.030360036426903318, -1.205892333984375, 0.3065625, 10.409952392578125
1520530311447318469, -0.19867181731991118, -0.0391484680241648, -0.028762139772855775, -1.196312255859375, 0.33290771484375004, 10.386002197265626
1520530311452334469, -0.19254654681272892, -0.03728425526110934, -0.026631610900792385, -1.149609375, 0.36284545898437504, 10.390792236328126
1520530311457351469, -0.18695390852356253, -0.034354778062022175, -0.023968449810713145, -1.155596923828125, 0.38200561523437504, 10.34408935546875
1520530311462366469, -0.17869810914431689, -0.03249056529896671, -0.020506340393610135, -1.13763427734375, 0.38320312500000003, 10.261461181640625
1520530311467382469, -0.16671388423896033, -0.028762139772855775, -0.020506340393610135, -1.141226806640625, 0.36643798828125, 10.241103515625001
1520530311472399469, -0.15393071100657998, -0.021038972611625982, -0.021305288720633905, -1.159189453125, 0.326920166015625, 10.230325927734375
1520530311477414469, -0.13954964112015208, -0.01731054708551505, -0.019707392066586366, -1.191522216796875, 0.32213012695312504, 10.208770751953125
1520530311482430469, -0.12330435847066874, -0.01464738599543581, -0.01864212763055467, -1.191522216796875, 0.267044677734375, 10.20517822265625
1520530311487447469, -0.10679275971217746, -0.008788431597261486, -0.01997370817559429, -1.210682373046875, 0.19160156250000002, 10.166857910156251
1520530311492463469, -0.09134642538971788, -0.005858954398174325, -0.022636869265673525, -1.22385498046875, 0.202379150390625, 10.126142578125
1520530311497477469, -0.07563377495825037, 0.004793689962142629, -0.02423476591972107, -1.22385498046875, 0.195194091796875, 10.145302734375
1520530311502494469, -0.0580569117637274, 0.010652644360316953, -0.02556634646476069, -1.149609375, 0.16166381835937502, 10.100994873046876
1520530311507510469, -0.04261057744126781, 0.01651159875849128, -0.028762139772855775, -1.1639794921875, 0.14609619140625002, 10.122550048828126
1520530311512527469, -0.025300030355752765, 0.02077265650261806, -0.02636529479178446, -1.178349609375, 0.15328125, 10.159672851562501
1520530311517543469, -0.009587379924285258, 0.024501082028728992, -0.023968449810713145, -1.16158447265625, 0.16046630859375, 10.226733398437501
1520530311522558469, 0.0055926382891664005, 0.02689792700980031, -0.019707392066586366, -1.10410400390625, 0.18561401367187502, 10.220745849609376
1520530311527574469, 0.01997370817559429, 0.028762139772855775, -0.013049489341388268, -1.0873388671875, 0.21555175781250002, 10.164462890625
1520530311532590469, 0.03382214584400633, 0.02716424311880823, -0.007190534943213944, -1.112486572265625, 0.22034179687500002, 10.188413085937501
1520530311537606469, 0.04713795129440252, 0.02636529479178446, 0.0021305288720633907, -1.136436767578125, 0.243094482421875, 10.25307861328125
1520530311542622469, 0.05832322787273532, 0.025832662573768612, 0.0055926382891664005, -1.1639794921875, 0.250279541015625, 10.22433837890625
1520530311547637469, 0.07004113666908397, 0.02822950755483993, 0.008788431597261486, -1.1567944335937501, 0.26345214843750003, 10.249486083984376
1520530311552654469, 0.08255799379245639, 0.02689792700980031, 0.01384843766841204, -1.13284423828125, 0.26225463867187504, 10.273436279296876
1520530311557670469, 0.08948221262666241, 0.025033714246744842, 0.01997370817559429, -1.157991943359375, 0.271834716796875, 10.25786865234375
1520530311562686469, 0.09693906367888427, 0.0234358175926973, 0.024501082028728992, -1.157991943359375, 0.267044677734375, 10.263856201171876
1520530311567703469, 0.10652644360316954, 0.022636869265673525, 0.029561088099879545, -1.1543994140625, 0.276624755859375, 10.33450927734375
1520530311572718469, 0.11025486912928047, 0.0234358175926973, 0.03408846195301425, -1.1388317871093752, 0.30416748046875003, 10.354866943359376
1520530311577733469, 0.11584750741844686, 0.022636869265673525, 0.037017939152101415, -1.1687695312500002, 0.288599853515625, 10.3129541015625
1520530311582751469, 0.12197277792562912, 0.02210423704765768, 0.03941478413317273, -1.2034973144531251, 0.27303222656250004, 10.36324951171875
1520530311587767469, 0.12596751956074798, 0.021837920938649755, 0.03941478413317273, -1.184337158203125, 0.28740234375, 10.3848046875
1520530311592782469, 0.1283643645418193, 0.018908443739562592, 0.03808320358813311, -1.1951147460937501, 0.271834716796875, 10.376422119140626
1520530311597797469, 0.13209279006793023, 0.018109495412538822, 0.03808320358813311, -1.208287353515625, 0.31255004882812504, 10.326126708984376
1520530311602814469, 0.132891738394954, 0.014114753777419964, 0.03808320358813311, -1.1436218261718751, 0.314945068359375, 10.357261962890625
1520530311607831469, 0.13502226726701738, 0.010652644360316953, 0.039681100242180654, -1.149609375, 0.3113525390625, 10.371632080078125
1520530311612845469, 0.136353847812057, 0.008788431597261486, 0.036218990825077645, -1.148411865234375, 0.30416748046875003, 10.368039550781251
1520530311617863469, 0.13795174446610456, 0.00692421883420602, 0.037017939152101415, -1.150806884765625, 0.35685791015625, 10.364447021484375
1520530311622879469, 0.1384843766841204, 0.00346210941710301, 0.03675162304309349, -1.093326416015625, 0.34727783203125, 10.414742431640626
1520530311627895469, 0.1384843766841204, 0.0055926382891664005, 0.03675162304309349, -1.12805419921875, 0.30416748046875003, 10.43989013671875
1520530311632911469, 0.13768542835709663, 0.004793689962142629, 0.03542004249805387, -1.1472143554687502, 0.335302734375, 10.424322509765625
1520530311637927469, 0.13821806057511246, 0.004261057744126781, 0.03302319751698256, -1.117276611328125, 0.354462890625, 10.406359863281251
1520530311642943469, 0.13715279613908077, 0.003195793308095086, 0.032756881407974635, -1.114881591796875, 0.338895263671875, 10.435100097656251
1520530311647958469, 0.13662016392106494, 0.001864212763055467, 0.030093720317895395, -1.153201904296875, 0.33769775390625, 10.462642822265625
1520530311652975469, 0.13262542228594607, 0.0021305288720633907, 0.02982740420888747, -1.13763427734375, 0.326920166015625, 10.467432861328126
1520530311657991469, 0.12969594508685892, -0.0007989483270237715, 0.030360036426903318, -1.1088940429687502, 0.335302734375, 10.500963134765625
1520530311663005469, 0.12570120345174005, 0.001864212763055467, 0.025033714246744842, -1.1543994140625, 0.36164794921875004, 10.491383056640625
1520530311668023469, 0.12037488127158158, 0.001597896654047543, 0.02423476591972107, -1.1436218261718751, 0.336500244140625, 10.4614453125
1520530311673038469, 0.11424961076439932, 0.0010652644360316954, 0.023169501483689375, -1.1448193359375, 0.30177246093750004, 10.484197998046875
1520530311678055469, 0.11132013356531216, 0.0, 0.021571604829641832, -1.11847412109375, 0.314945068359375, 10.4853955078125
1520530311683071469, 0.10572749527614576, -0.001864212763055467, 0.020506340393610135, -1.071771240234375, 0.28380981445312503, 10.488988037109376
1520530311688086469, 0.09773801200590805, -0.004261057744126781, 0.02077265650261806, -1.1088940429687502, 0.286204833984375, 10.553653564453125
1520530311693103469, 0.09028116095368618, -0.011185276578332801, 0.021305288720633905, -1.1088940429687502, 0.3305126953125, 10.534493408203126
1520530311698119469, 0.08362325822848808, -0.01651159875849128, 0.022370553156665602, -1.0621911621093751, 0.34129028320312504, 10.566826171875
1520530311703135469, 0.07483482663122659, -0.018908443739562592, 0.023702133701705222, -1.095721435546875, 0.35206787109375004, 10.57401123046875
1520530311708150469, 0.0636495500528938, -0.02476739813773692, 0.023169501483689375, -1.1448193359375, 0.37362304687500003, 10.587183837890626
1520530311713166469, 0.05379585401960062, -0.026098978682776535, 0.024501082028728992, -1.1112890625, 0.3784130859375, 10.600356445312501
1520530311718183469, 0.044741106313331204, -0.024501082028728992, 0.023169501483689375, -1.1112890625, 0.405955810546875, 10.625504150390626
1520530311723199469, 0.032756881407974635, -0.022370553156665602, 0.02077265650261806, -1.136436767578125, 0.41314086914062503, 10.631491699218751
1520530311728215469, 0.021571604829641832, -0.020240024284602212, 0.017576863194522972, -1.1448193359375, 0.458646240234375, 10.647059326171876
1520530311733231469, 0.012250541014364496, -0.019174759848570515, 0.019174759848570515, -1.131646728515625, 0.475411376953125, 10.627899169921875
1520530311738247469, 0.0010652644360316954, -0.017576863194522972, 0.01731054708551505, -1.13284423828125, 0.46702880859375, 10.6578369140625
1520530311743262469, -0.010120012142301106, -0.015180018213451659, 0.016777914867499202, -1.086141357421875, 0.439486083984375, 10.625504150390626
1520530311748279469, -0.01944107595757844, -0.013315805450396193, 0.015712650431467506, -1.117276611328125, 0.45744873046875, 10.571616210937501
1520530311753294469, -0.027430559227816155, -0.012516857123372421, 0.01651159875849128, -1.1352392578125001, 0.434696044921875, 10.585986328125001
1520530311758310469, -0.03648530693408557, -0.012250541014364496, 0.013582121559404116, -1.14242431640625, 0.389190673828125, 10.591973876953126
1520530311763326469, -0.04367584187729951, -0.009587379924285258, 0.011185276578332801, -1.1567944335937501, 0.335302734375, 10.5907763671875
1520530311768343469, -0.04926848016646591, -0.009587379924285258, 0.009853696033293183, -1.16637451171875, 0.31853759765625, 10.575208740234375
1520530311773360469, -0.05486111845563231, -0.012783173232380344, 0.007989483270237714, -1.215472412109375, 0.267044677734375, 10.50695068359375
1520530311778376469, -0.0625842856168621, -0.012250541014364496, 0.003994741635118857, -1.2118798828125001, 0.26105712890625, 10.46863037109375
1520530311783391469, -0.06844324001503643, -0.011185276578332801, 0.0021305288720633907, -1.178349609375, 0.250279541015625, 10.48300048828125
1520530311788407469, -0.07163903332313151, -0.013315805450396193, 0.001597896654047543, -1.136436767578125, 0.223934326171875, 10.4614453125
1520530311793423469, -0.07669903939428206, -0.011451592687340724, -0.0010652644360316954, -1.093326416015625, 0.21674926757812502, 10.443482666015626
1520530311798439469, -0.07856325215733753, -0.011984224905356573, -0.0010652644360316954, -1.1448193359375, 0.2682421875, 10.44228515625
1520530311803454469, -0.08255799379245639, -0.011185276578332801, -0.0023968449810713144, -1.17595458984375, 0.228724365234375, 10.42552001953125
1520530311808471469, -0.0849548387735277, -0.010652644360316953, -0.004527373853134706, -1.1603869628906252, 0.21195922851562501, 10.393187255859376
1520530311813486469, -0.0849548387735277, -0.008522115488253563, -0.004261057744126781, -1.146016845703125, 0.188009033203125, 10.374027099609375
1520530311818503469, -0.08442220655551186, -0.008522115488253563, -0.0055926382891664005, -1.140029296875, 0.1580712890625, 10.4183349609375
1520530311823519469, -0.08229167768344847, -0.009587379924285258, -0.008522115488253563, -1.107696533203125, 0.1484912109375, 10.407557373046876
1520530311828540469, -0.08442220655551186, -0.009853696033293183, -0.007456851052221868, -1.13284423828125, 0.144898681640625, 10.3800146484375
1520530311833551469, -0.08096009713840885, -0.01038632825130903, -0.0055926382891664005, -1.1388317871093752, 0.137713623046875, 10.36324951171875
1520530311838567469, -0.07510114274023452, -0.011185276578332801, -0.00692421883420602, -1.141226806640625, 0.144898681640625, 10.359656982421875
1520530311843594469, -0.07456851052221868, -0.014114753777419964, -0.003994741635118857, -1.148411865234375, 0.17603393554687502, 10.345286865234376
1520530311848599469, -0.07163903332313151, -0.014114753777419964, -0.0023968449810713144, -1.14242431640625, 0.20357666015625, 10.374027099609375
1520530311853615469, -0.06551376281594927, -0.013049489341388268, 0.001331580545039619, -1.14242431640625, 0.22273681640625, 10.390792236328126
1520530311858631469, -0.060720072853806636, -0.013049489341388268, 0.006125270507182248, -1.16637451171875, 0.223934326171875, 10.356064453125
1520530311863645469, -0.05645901510967986, -0.00825579937924564, 0.007723167161229791, -1.1735595703125001, 0.24069946289062502, 10.36564453125
1520530311868662469, -0.04926848016646591, -0.004793689962142629, 0.009587379924285258, -1.172362060546875, 0.229921875, 10.350076904296875
1520530311873679469, -0.04420847409531536, -0.0021305288720633907, 0.01171790879634865, -1.153201904296875, 0.22632934570312502, 10.364447021484375
1520530311878694469, -0.03675162304309349, 0.0021305288720633907, 0.011451592687340724, -1.17595458984375, 0.22153930664062502, 10.357261962890625
1520530311883711469, -0.030892668644919165, 0.006657902725198096, 0.01171790879634865, -1.1879296875, 0.24189697265625001, 10.332114257812501
1520530311888726469, -0.022370553156665602, 0.009587379924285258, 0.013582121559404116, -1.2214599609375, 0.219144287109375, 10.306966552734375
1520530311893742469, -0.01384843766841204, 0.015712650431467506, 0.01384843766841204, -1.234632568359375, 0.18441650390625, 10.314151611328125
1520530311898759469, -0.009321063815277334, 0.02077265650261806, 0.015446334322459582, -1.244212646484375, 0.15567626953125, 10.3225341796875
1520530311903774469, -0.003994741635118857, 0.026631610900792385, 0.010918960469324878, -1.25738525390625, 0.154478759765625, 10.336904296875
1520530311908791469, 0.001864212763055467, 0.034354778062022175, 0.00692421883420602, -1.2669653320312502, 0.13172607421875002, 10.33450927734375
1520530311913806469, 0.0055926382891664005, 0.03595267471606972, 0.003994741635118857, -1.2250524902343751, 0.15567626953125, 10.38719970703125
1520530311918823469, 0.011451592687340724, 0.0391484680241648, 0.0010652644360316954, -1.2286450195312502, 0.1149609375, 10.345286865234376
1520530311923839469, 0.01384843766841204, 0.039681100242180654, -0.004527373853134706, -1.2070898437500002, 0.092208251953125, 10.35845947265625
1520530311928855469, 0.014381069886427887, 0.04074636467821235, -0.005326322180158476, -1.150806884765625, 0.106578369140625, 10.423125
1520530311933871469, 0.01731054708551505, 0.038615835806148954, -0.003728425526110934, -1.18553466796875, 0.1197509765625, 10.445877685546876
1520530311938887469, 0.01731054708551505, 0.037816887479125184, -0.001597896654047543, -1.1088940429687502, 0.12214599609375, 10.448272705078125
1520530311943902469, 0.013582121559404116, 0.033555829734998405, 0.003195793308095086, -1.0238708496093751, 0.09819580078125001, 10.471025390625
1520530311948919469, 0.012250541014364496, 0.03302319751698256, 0.010652644360316953, -1.0777587890625, 0.15567626953125, 10.517728271484376
1520530311953934469, 0.009587379924285258, 0.032756881407974635, 0.01944107595757844, -1.1160791015625, 0.19639160156250002, 10.455457763671875
1520530311958950469, 0.007989483270237714, 0.02929477199087162, 0.02423476591972107, -1.13763427734375, 0.1676513671875, 10.474617919921876
1520530311963966469, 0.004793689962142629, 0.028762139772855775, 0.02849582366384785, -1.157991943359375, 0.18082397460937502, 10.474617919921876
1520530311968982469, 0.0023968449810713144, 0.029561088099879545, 0.031158984753927088, -1.213077392578125, 0.17483642578125, 10.480605468750001
1520530311974000469, -0.001331580545039619, 0.03195793308095086, 0.030360036426903318, -1.260977783203125, 0.17124389648437502, 10.50216064453125
1520530311979015469, -0.0029294771990871623, 0.03408846195301425, 0.02982740420888747, -1.2849279785156251, 0.1676513671875, 10.508148193359375
1520530311984031469, -0.004261057744126781, 0.0346210941710301, 0.026631610900792385, -1.29570556640625, 0.16645385742187502, 10.515333251953125
1520530311989047469, -0.007456851052221868, 0.03542004249805387, 0.022636869265673525, -1.275347900390625, 0.17004638671875, 10.562036132812501
1520530311994062469, -0.008522115488253563, 0.035153726389045944, 0.017044230976507126, -1.265767822265625, 0.20357666015625, 10.53090087890625
1520530311999078469, -0.008522115488253563, 0.033555829734998405, 0.012516857123372421, -1.2981005859375, 0.23111938476562502, 10.511740722656251
1520530312004094469, -0.007989483270237714, 0.031158984753927088, 0.005858954398174325, -1.2765454101562501, 0.2442919921875, 10.536888427734375
1520530312009111469, -0.009054747706269411, 0.030360036426903318, 0.001331580545039619, -1.29091552734375, 0.27422973632812503, 10.55964111328125
1520530312014126469, -0.007989483270237714, 0.025300030355752765, -0.005060006071150553, -1.275347900390625, 0.28740234375, 10.566826171875
1520530312019143469, -0.006657902725198096, 0.022636869265673525, -0.01038632825130903, -1.251397705078125, 0.26225463867187504, 10.562036132812501
1520530312024159469, -0.00692421883420602, 0.024501082028728992, -0.013315805450396193, -1.270557861328125, 0.27303222656250004, 10.58838134765625
1520530312029174469, -0.00825579937924564, 0.02689792700980031, -0.014114753777419964, -1.2406201171875, 0.296982421875, 10.57640625
1520530312034190469, -0.00692421883420602, 0.025832662573768612, -0.012783173232380344, -1.2166699218750001, 0.32811767578125, 10.591973876953126
1520530312039207469, -0.00692421883420602, 0.023968449810713145, -0.012783173232380344, -1.184337158203125, 0.34727783203125, 10.578801269531251
1520530312044222469, -0.00692421883420602, 0.02077265650261806, -0.007456851052221868, -1.178349609375, 0.374820556640625, 10.571616210937501
1520530312049239469, -0.009054747706269411, 0.018375811521546746, -0.006125270507182248, -1.140029296875, 0.398770751953125, 10.639874267578126
1520530312054255469, -0.009054747706269411, 0.015446334322459582, -0.0007989483270237715, -1.14242431640625, 0.41074584960937505, 10.614726562500001
1520530312059272469, -0.007190534943213944, 0.009054747706269411, 0.006391586616190172, -1.117276611328125, 0.4167333984375, 10.644664306640626
1520530312064286469, -0.009853696033293183, 0.0021305288720633907, 0.009321063815277334, -1.120869140625, 0.38320312500000003, 10.637479248046876
1520530312069303469, -0.009587379924285258, -0.0010652644360316954, 0.013582121559404116, -1.1520043945312501, 0.377215576171875, 10.596763916015625
1520530312074318469, -0.01038632825130903, -0.0055926382891664005, 0.01651159875849128, -1.1735595703125001, 0.336500244140625, 10.553653564453125
1520530312079335469, -0.013049489341388268, -0.012783173232380344, 0.015712650431467506, -1.172362060546875, 0.31374755859375003, 10.52132080078125
1520530312084351469, -0.011984224905356573, -0.018375811521546746, 0.015180018213451659, -1.197509765625, 0.310155029296875, 10.5237158203125
1520530312089367469, -0.01651159875849128, -0.0234358175926973, 0.014114753777419964, -1.159189453125, 0.25147705078125, 10.494975585937501
1520530312094382469, -0.015712650431467506, -0.024501082028728992, 0.013049489341388268, -1.205892333984375, 0.223934326171875, 10.443482666015626
1520530312099399469, -0.01597896654047543, -0.02423476591972107, 0.013582121559404116, -1.2370275878906252, 0.214354248046875, 10.46863037109375
1520530312104415469, -0.017044230976507126, -0.025832662573768612, 0.011185276578332801, -1.234632568359375, 0.17004638671875, 10.459050292968751
1520530312109431469, -0.01864212763055467, -0.026631610900792385, 0.008522115488253563, -1.2286450195312502, 0.17004638671875, 10.364447021484375
1520530312114446469, -0.01997370817559429, -0.023968449810713145, 0.007989483270237714, -1.253792724609375, 0.147293701171875, 10.394384765625
1520530312119463469, -0.018375811521546746, -0.02210423704765768, 0.00346210941710301, -1.274150390625, 0.10777587890625001, 10.360854492187501
1520530312124478469, -0.01731054708551505, -0.019707392066586366, -0.001864212763055467, -1.294508056640625, 0.09340576171875001, 10.3800146484375
1520530312129494469, -0.01997370817559429, -0.014381069886427887, -0.006391586616190172, -1.275347900390625, 0.055085449218750006, 10.374027099609375
1520530312134510469, -0.019707392066586366, -0.01038632825130903, -0.010120012142301106, -1.222657470703125, 0.056282958984375006, 10.3512744140625
1520530312139527469, -0.01997370817559429, -0.00825579937924564, -0.011984224905356573, -1.205892333984375, 0.05748046875, 10.342891845703125
1520530312144542469, -0.01997370817559429, -0.005858954398174325, -0.01464738599543581, -1.2022998046875, 0.06586303710937501, 10.340496826171876
1520530312149559469, -0.021038972611625982, -0.0023968449810713144, -0.01464738599543581, -1.2214599609375, 0.044307861328125, 10.374027099609375
1520530312154576469, -0.01997370817559429, 0.0005326322180158477, -0.015180018213451659, -1.1819421386718751, 0.082628173828125, 10.3416943359375
1520530312159590469, -0.020506340393610135, 0.0029294771990871623, -0.016245282649483356, -1.1567944335937501, 0.106578369140625, 10.34887939453125
1520530312164606469, -0.022370553156665602, 0.0023968449810713144, -0.012783173232380344, -1.1771520996093752, 0.10538085937500001, 10.357261962890625
1520530312169623469, -0.02290318537468145, 0.003728425526110934, -0.01038632825130903, -1.149609375, 0.11735595703125, 10.311756591796875
1520530312174638469, -0.022370553156665602, 0.004261057744126781, -0.008522115488253563, -1.1771520996093752, 0.11735595703125, 10.30576904296875
1520530312179656469, -0.02290318537468145, 0.0023968449810713144, -0.005858954398174325, -1.159189453125, 0.1197509765625, 10.304571533203125
1520530312184671469, -0.022636869265673525, 0.003994741635118857, -0.003994741635118857, -1.1639794921875, 0.10059082031250001, 10.300979003906251
1520530312189687469, -0.021305288720633905, 0.004793689962142629, -0.005858954398174325, -1.1687695312500002, 0.086220703125, 10.352471923828125
1520530312194702469, -0.021038972611625982, 0.006391586616190172, -0.004527373853134706, -1.16637451171875, 0.101788330078125, 10.3225341796875
1520530312199720469, -0.021571604829641832, 0.007456851052221868, 0.001597896654047543, -1.148411865234375, 0.106578369140625, 10.336904296875
1520530312204736469, -0.020240024284602212, 0.005326322180158476, 0.003728425526110934, -1.157991943359375, 0.06466552734375, 10.381212158203125
1520530312209750469, -0.018109495412538822, 0.006125270507182248, 0.004793689962142629, -1.1867321777343751, 0.09819580078125001, 10.354866943359376
1520530312214766469, -0.017576863194522972, 0.007723167161229791, 0.007190534943213944, -1.1543994140625, 0.08861572265625, 10.360854492187501
1520530312219783469, -0.016245282649483356, 0.008522115488253563, 0.010652644360316953, -1.2034973144531251, 0.044307861328125, 10.336904296875
1520530312224800469, -0.016245282649483356, 0.011984224905356573, 0.01038632825130903, -1.229842529296875, 0.032332763671875, 10.352471923828125
1520530312229815469, -0.011984224905356573, 0.01651159875849128, 0.01038632825130903, -1.24541015625, 0.026345214843750003, 10.352471923828125
1520530312234831469, -0.009853696033293183, 0.021305288720633905, 0.012783173232380344, -1.268162841796875, -0.010777587890625, 10.36324951171875
1520530312239847469, -0.007723167161229791, 0.02556634646476069, 0.013049489341388268, -1.2406201171875, 0.003592529296875, 10.342891845703125
1520530312244862469, -0.00825579937924564, 0.026098978682776535, 0.010918960469324878, -1.22385498046875, 0.028740234375, 10.306966552734375
1520530312249880469, -0.006391586616190172, 0.028762139772855775, 0.009054747706269411, -1.2214599609375, 0.023950195312500002, 10.298583984375
1520530312254894469, -0.0021305288720633907, 0.033555829734998405, 0.008788431597261486, -1.232237548828125, 0.02155517578125, 10.315349121093751
1520530312259912469, 0.0023968449810713144, 0.0346210941710301, 0.008788431597261486, -1.232237548828125, 0.022752685546875002, 10.29139892578125
1520530312264926469, 0.005060006071150553, 0.03408846195301425, 0.006391586616190172, -1.251397705078125, 0.029937744140625, 10.287806396484376
1520530312269944469, 0.00692421883420602, 0.0346210941710301, 0.0021305288720633907, -1.232237548828125, 0.0335302734375, 10.29618896484375
1520530312274958469, 0.009587379924285258, 0.034354778062022175, -0.00026631610900792384, -1.196312255859375, 0.0431103515625, 10.2746337890625
1520530312279976469, 0.014114753777419964, 0.033555829734998405, 0.0, -1.193917236328125, 0.0431103515625, 10.272238769531251
1520530312284991469, 0.017044230976507126, 0.03062635253591124, 0.001864212763055467, -1.18553466796875, 0.053887939453125006, 10.299781494140625
1520530312290007469, 0.021038972611625982, 0.02929477199087162, 0.0, -1.1639794921875, 0.029937744140625, 10.27702880859375
1520530312295022469, 0.02423476591972107, 0.02849582366384785, 0.0007989483270237715, -1.1567944335937501, 0.0431103515625, 10.29139892578125
1520530312300039469, 0.024501082028728992, 0.025832662573768612, 0.002663161090079238, -1.2034973144531251, 0.080233154296875, 10.28900390625
1520530312305055469, 0.029561088099879545, 0.026098978682776535, 0.001864212763055467, -1.189127197265625, 0.050295410156250005, 10.29139892578125
1520530312310072469, 0.03328951362599048, 0.02982740420888747, -0.0021305288720633907, -1.17116455078125, 0.07544311523437501, 10.314151611328125
1520530312315086469, 0.03568635860706179, 0.03249056529896671, -0.0021305288720633907, -1.210682373046875, 0.067060546875, 10.309361572265626
1520530312320104469, 0.03808320358813311, 0.032756881407974635, -0.004261057744126781, -1.184337158203125, 0.07544311523437501, 10.326126708984376
1520530312325119469, 0.04367584187729951, 0.03328951362599048, -0.004793689962142629, -1.1639794921875, 0.106578369140625, 10.3416943359375
1520530312330135469, 0.04447479020432328, 0.031691616971942935, -0.004527373853134706, -1.14242431640625, 0.10059082031250001, 10.36324951171875
1520530312335152469, 0.046605319076386674, 0.031158984753927088, -0.007190534943213944, -1.16158447265625, 0.12334350585937501, 10.357261962890625
1520530312340166469, 0.04713795129440252, 0.02689792700980031, -0.006391586616190172, -1.1567944335937501, 0.086220703125, 10.346484375000001
1520530312345182469, 0.0468716351853946, 0.025033714246744842, -0.003994741635118857, -1.184337158203125, 0.082628173828125, 10.366842041015625
1520530312350200469, 0.0468716351853946, 0.021571604829641832, -0.003994741635118857, -1.210682373046875, 0.08861572265625, 10.378817138671875
1520530312355215469, 0.04926848016646591, 0.022636869265673525, -0.005060006071150553, -1.20948486328125, 0.07903564453125, 10.424322509765625
1520530312360232469, 0.05033374460249761, 0.02210423704765768, -0.0055926382891664005, -1.20948486328125, 0.076640625, 10.43031005859375
1520530312365246469, 0.04980111238448176, 0.020506340393610135, -0.006125270507182248, -1.21906494140625, 0.07065307617187501, 10.429112548828126
1520530312370263469, 0.05193164125654515, 0.018375811521546746, -0.004261057744126781, -1.2166699218750001, 0.067060546875, 10.455457763671875
